,att.pitch,att.roll,att.yaw,acc.x,acc.y,acc.z,gyro.pitch_w,gyro.roll_w,gyro.yaw_w
2023-11-21 20:58:57.420,3.0,5.6999998093,333.0,-104.0,195.0,1983.0,0.0609756112,0.0,0.1829268336
2023-11-21 20:58:57.430,3.0,5.6999998093,333.0,-103.5,194.0,1982.5,0.0304878056,0.0,0.0914634168
2023-11-21 20:58:57.440,3.0,5.6999998093,333.0,-103.0,193.0,1982.0,0.0,0.0,0.0
2023-11-21 20:58:57.450,3.0,5.64999985695,333.0,-103.0,193.0,1982.0,-0.0609756112,0.0,0.0609756112
2023-11-21 20:58:57.460,3.0,5.5999999046,333.0,-103.0,195.0,1983.0,0.0609756112,0.0609756112,0.0
2023-11-21 20:58:57.470,3.0,5.5999999046,333.0,-103.0,197.0,1983.0,0.0,0.0,0.0
2023-11-21 20:58:57.480,3.0,5.5999999046,333.0,-103.0,197.0,1983.0,0.0,0.0,0.0
2023-11-21 20:58:57.490,3.0,5.64999985695,333.0,-105.0,197.0,1982.0,-0.0609756112,0.0,-0.0609756112
2023-11-21 20:58:57.500,3.0,5.6999998093,333.0,-104.0,200.0,1983.0,0.0,0.0,0.0
2023-11-21 20:58:57.510,3.0,5.6999998093,333.0,-104.0,198.0,1981.0,0.0609756112,0.0,0.0
2023-11-21 20:58:57.520,3.0,5.6999998093,333.0,-105.0,198.0,1983.0,0.0,0.0,0.0
2023-11-21 20:58:57.530,3.0,5.6999998093,333.0,-104.5,197.0,1982.5,0.0304878056,-0.0304878056,0.0
2023-11-21 20:58:57.540,3.0,5.6999998093,333.0,-104.0,196.0,1982.0,0.0609756112,-0.0609756112,0.0
2023-11-21 20:58:57.550,3.0,5.6999998093,333.0,-103.0,194.0,1982.0,0.0,0.1219512224,0.0
2023-11-21 20:58:57.560,3.0,5.6999998093,333.0,-104.0,196.0,1982.0,0.0304878056,0.0304878056,-0.0304878056
2023-11-21 20:58:57.570,3.0,5.6999998093,333.0,-105.0,198.0,1982.0,0.0609756112,-0.0609756112,-0.0609756112
2023-11-21 20:58:57.580,3.0,5.6999998093,333.0,-105.0,196.0,1982.0,0.0,-0.0609756112,0.0
2023-11-21 20:58:57.590,3.0,5.6999998093,333.0,-104.0,195.0,1982.0,0.0,0.0,0.0
2023-11-21 20:58:57.600,3.0,5.6999998093,333.0,-104.0,195.5,1982.0,0.0304878056,0.0,0.0
2023-11-21 20:58:57.610,3.0,5.6999998093,333.0,-104.0,196.0,1982.0,0.0609756112,0.0,0.0
2023-11-21 20:58:57.620,3.0,5.64999985695,333.0,-105.0,193.0,1982.0,-0.0609756112,0.0,0.0609756112
2023-11-21 20:58:57.630,3.0,5.5999999046,333.0,-102.0,194.0,1984.0,-0.0609756112,-0.0609756112,-0.0609756112
2023-11-21 20:58:57.640,3.0,5.5999999046,333.0,-103.5,195.0,1983.5,-0.0304878056,-0.0304878056,-0.0304878056
2023-11-21 20:58:57.650,3.0,5.5999999046,333.0,-105.0,196.0,1983.0,0.0,0.0,0.0
2023-11-21 20:58:57.660,3.0,5.5999999046,333.0,-104.0,195.0,1983.0,-0.0609756112,0.1219512224,0.0609756112
2023-11-21 20:58:57.670,3.0,5.5999999046,333.0,-105.0,196.0,1983.0,0.0609756112,0.0,0.0
2023-11-21 20:58:57.680,3.0,5.5999999046,333.0,-103.0,196.0,1982.0,0.0609756112,0.0,-0.0609756112
2023-11-21 20:58:57.690,3.0,5.5999999046,333.0,-104.0,196.0,1983.0,0.0304878056,0.0,-0.0304878056
2023-11-21 20:58:57.700,3.0,5.5999999046,333.0,-105.0,196.0,1984.0,0.0,0.0,0.0
2023-11-21 20:58:57.710,3.0,5.5999999046,333.0,-105.0,195.0,1984.0,0.0,-0.0609756112,0.0
2023-11-21 20:58:57.720,3.0,5.5999999046,333.0,-104.5,195.5,1984.0,0.0304878056,0.0,0.0
2023-11-21 20:58:57.730,3.0,5.5999999046,333.0,-104.0,196.0,1984.0,0.0609756112,0.0609756112,0.0
2023-11-21 20:58:57.740,3.0,5.5999999046,333.0,-104.0,197.0,1983.0,0.0609756112,0.0,0.0
2023-11-21 20:58:57.750,3.0,5.5999999046,333.0,-104.0,196.0,1982.0,0.0,0.0,0.0
2023-11-21 20:58:57.760,3.0,5.5999999046,333.0,-104.5,195.5,1983.0,0.0304878056,-0.0304878056,0.0
2023-11-21 20:58:57.770,3.0,5.5999999046,333.0,-105.0,195.0,1984.0,0.0609756112,-0.0609756112,0.0
2023-11-21 20:58:57.780,3.0,5.5999999046,333.0,-104.0,195.0,1984.0,0.0609756112,-0.0609756112,0.0609756112
2023-11-21 20:58:57.790,3.0,5.5999999046,333.0,-105.0,197.0,1983.0,-0.0609756112,0.0,0.0
2023-11-21 20:58:57.800,3.0,5.5999999046,333.0,-104.0,195.0,1983.0,0.0,0.0,-0.0609756112
2023-11-21 20:58:57.810,3.0,5.5999999046,333.0,-104.0,195.5,1983.5,0.0,0.0304878056,-0.0609756112
2023-11-21 20:58:57.820,3.0,5.5999999046,333.0,-104.0,196.0,1984.0,0.0,0.0609756112,-0.0609756112
2023-11-21 20:58:57.830,3.0,5.5999999046,333.0,-104.0,194.0,1984.0,0.0609756112,0.0,0.0
2023-11-21 20:58:57.840,3.0,5.5999999046,333.0,-105.0,195.0,1982.0,-0.0609756112,0.0,0.0
2023-11-21 20:58:57.850,3.0,5.5999999046,333.0,-105.5,196.0,1982.5,-0.0304878056,0.0304878056,0.0
2023-11-21 20:58:57.860,3.0,5.5999999046,333.0,-106.0,197.0,1983.0,0.0,0.0609756112,0.0
2023-11-21 20:58:57.870,3.0,5.5999999046,333.0,-104.0,195.0,1982.0,0.0,0.0,0.0
2023-11-21 20:58:57.880,3.0,5.5999999046,333.0,-105.0,196.0,1983.0,0.0,0.0,0.0609756112
2023-11-21 20:58:57.890,3.0,5.5999999046,333.0,-105.0,196.0,1983.0,0.0304878056,-0.0304878056,0.0304878056
2023-11-21 20:58:57.900,3.0,5.5999999046,333.0,-105.0,196.0,1983.0,0.0609756112,-0.0609756112,0.0
2023-11-21 20:58:57.910,3.0,5.5999999046,333.0,-105.0,195.0,1985.0,0.0,0.0,0.0
2023-11-21 20:58:57.920,3.0,5.5999999046,333.0,-104.0,196.0,1982.0,0.0,0.0609756112,0.0
2023-11-21 20:58:57.930,3.0,5.5999999046,333.0,-105.0,195.0,1983.0,0.1219512224,-0.0609756112,-0.1219512224
2023-11-21 20:58:57.940,3.0,5.5999999046,333.0,-104.0,195.0,1983.5,0.0609756112,0.0,-0.0914634168
2023-11-21 20:58:57.950,3.0,5.5999999046,333.0,-103.0,195.0,1984.0,0.0,0.0609756112,-0.0609756112
2023-11-21 20:58:57.960,3.0,5.5999999046,333.0,-104.0,197.0,1984.0,0.0,0.0,0.0
2023-11-21 20:58:57.970,3.0,5.5999999046,333.0,-103.0,196.0,1983.0,0.1219512224,0.0,0.0609756112
2023-11-21 20:58:57.980,3.0,5.5999999046,333.0,-103.0,196.0,1983.0,0.1219512224,0.0,0.0609756112
2023-11-21 20:58:57.990,3.0,5.5999999046,333.0,-105.0,195.0,1984.0,0.1219512224,0.0,0.0
2023-11-21 20:58:58.000,3.0,5.5999999046,333.0,-105.0,198.0,1983.0,0.0609756112,0.0,-0.1219512224
2023-11-21 20:58:58.010,3.0,5.5999999046,333.0,-104.0,196.0,1985.0,-0.0609756112,0.0,0.0609756112
2023-11-21 20:58:58.020,3.0,5.5999999046,333.0,-104.0,196.0,1985.0,-0.0609756112,0.0,0.0609756112
2023-11-21 20:58:58.030,3.0,5.5999999046,333.0,-104.0,195.0,1985.0,0.0609756112,-0.0609756112,0.0
2023-11-21 20:58:58.040,3.0,5.5999999046,333.0,-105.0,196.0,1984.0,-0.0609756112,0.0,0.0
2023-11-21 20:58:58.050,3.0,5.5999999046,333.0,-104.0,196.0,1983.0,0.0,0.0,0.0
2023-11-21 20:58:58.060,3.0,5.5999999046,333.0,-104.0,196.0,1983.5,0.0,0.0304878056,-0.0304878056
2023-11-21 20:58:58.070,3.0,5.5999999046,333.0,-104.0,196.0,1984.0,0.0,0.0609756112,-0.0609756112
2023-11-21 20:58:58.080,3.0,5.5999999046,333.0,-103.0,197.0,1983.0,-0.0609756112,0.0,0.0
2023-11-21 20:58:58.090,3.0,5.5999999046,333.0,-104.0,197.0,1984.0,0.0,0.0,-0.0609756112
2023-11-21 20:58:58.100,3.0,5.5999999046,333.0,-103.0,194.0,1984.0,-0.0609756112,0.0,-0.0609756112
2023-11-21 20:58:58.110,3.0,5.5999999046,333.0,-103.25,194.5,1984.5,-0.0304878056,0.0,-0.0457317084
2023-11-21 20:58:58.120,3.0,5.5999999046,333.0,-103.5,195.0,1985.0,0.0,0.0,-0.0304878056
2023-11-21 20:58:58.130,3.0,5.5999999046,333.0,-103.0,195.0,1984.0,0.0304878056,0.0,0.0
2023-11-21 20:58:58.140,3.0,5.5999999046,333.0,-103.0,195.0,1983.0,0.0609756112,0.0,0.0
2023-11-21 20:58:58.150,3.0,5.5999999046,333.0,-104.0,196.0,1984.0,0.0609756112,0.0,0.0609756112
2023-11-21 20:58:58.160,3.0,5.5999999046,333.0,-103.0,195.0,1984.0,-0.0609756112,0.0,0.0
2023-11-21 20:58:58.170,3.0,5.5999999046,333.0,-103.0,196.0,1984.0,0.0,0.0,0.0
2023-11-21 20:58:58.180,3.0,5.5999999046,333.0,-103.5,196.0,1984.0,0.0304878056,-0.0304878056,-0.0304878056
2023-11-21 20:58:58.190,3.0,5.5999999046,333.0,-104.0,196.0,1984.0,0.0609756112,-0.0609756112,-0.0609756112
2023-11-21 20:58:58.200,3.0,5.5999999046,333.0,-103.0,197.0,1985.0,-0.0609756112,-0.0609756112,0.0
2023-11-21 20:58:58.210,3.0,5.5999999046,333.0,-103.0,195.0,1984.0,0.0,-0.1219512224,0.0
2023-11-21 20:58:58.220,3.0,5.5999999046,333.0,-104.0,196.0,1985.0,0.0,0.0,-0.0609756112
2023-11-21 20:58:58.230,3.0,5.5999999046,333.0,-103.0,196.0,1985.0,0.0,0.0,0.0
2023-11-21 20:58:58.240,3.0,5.5999999046,333.0,-103.5,196.5,1984.5,0.0,0.0,0.0
2023-11-21 20:58:58.250,3.0,5.5999999046,333.0,-104.0,197.0,1984.0,0.0,0.0,0.0
2023-11-21 20:58:58.260,3.0,5.5999999046,333.0,-105.0,196.0,1985.0,0.0,0.0,-0.0609756112
2023-11-21 20:58:58.270,3.0,5.5999999046,333.0,-105.0,196.0,1985.0,0.0,0.0,-0.0609756112
2023-11-21 20:58:58.280,3.0,5.5999999046,333.0,-105.0,197.0,1985.0,0.0609756112,0.0,0.1219512224
2023-11-21 20:58:58.290,3.0,5.5999999046,333.0,-105.0,195.0,1984.0,-0.0609756112,0.0,-0.0609756112
2023-11-21 20:58:58.300,3.0,5.5999999046,333.0,-104.0,195.0,1986.0,0.0,0.0,-0.0609756112
2023-11-21 20:58:58.310,3.0,5.5999999046,333.0,-104.66666666666666,196.0,1985.1666666666665,0.0,0.0,-0.04065040746666667
2023-11-21 20:58:58.320,3.0,5.5999999046,333.0,-105.33333333333333,197.0,1984.3333333333333,0.0,0.0,-0.020325203733333335
2023-11-21 20:58:58.330,3.0,5.5999999046,333.0,-104.0,197.0,1985.0,0.0,0.0,0.0609756112
2023-11-21 20:58:58.340,3.0,5.5999999046,333.0,-104.0,196.0,1985.0,-0.0609756112,0.0609756112,-0.0609756112
2023-11-21 20:58:58.350,3.0,5.5999999046,333.0,-104.0,196.0,1985.0,0.0609756112,0.0,0.0
2023-11-21 20:58:58.360,3.0,5.5999999046,333.0,-104.0,196.0,1985.0,0.1219512224,0.0,0.0
2023-11-21 20:58:58.370,3.0,5.5999999046,333.0,-104.0,196.0,1985.0,0.1219512224,0.0,0.0
2023-11-21 20:58:58.380,3.0,5.5999999046,333.0,-103.0,195.0,1985.0,0.0609756112,0.0,-0.0609756112
2023-11-21 20:58:58.390,3.0,5.5999999046,333.0,-103.0,197.0,1985.0,0.0609756112,0.0,-0.0609756112
2023-11-21 20:58:58.400,3.0,5.5999999046,333.0,-104.0,195.0,1984.0,0.0,0.0,0.0
2023-11-21 20:58:58.410,3.0,5.5999999046,333.0,-104.5,195.5,1984.5,0.0304878056,0.0,0.0
2023-11-21 20:58:58.420,3.0,5.5999999046,333.0,-105.0,196.0,1985.0,0.0609756112,0.0,0.0
2023-11-21 20:58:58.430,3.0,5.5999999046,333.0,-104.5,195.5,1984.5,0.0304878056,0.0,0.0
2023-11-21 20:58:58.440,3.0,5.5999999046,333.0,-104.0,195.0,1984.0,0.0,0.0,0.0
2023-11-21 20:58:58.450,3.0,5.5999999046,333.0,-104.0,197.0,1984.0,0.0609756112,0.0,-0.0609756112
2023-11-21 20:58:58.460,3.0,5.5999999046,333.0,-104.0,196.0,1983.0,-0.0609756112,0.0609756112,-0.0609756112
2023-11-21 20:58:58.470,3.0,5.5999999046,333.0,-105.0,195.0,1985.0,-0.0609756112,0.0,0.0609756112
2023-11-21 20:58:58.480,3.0,5.5999999046,333.0,-105.0,195.0,1985.0,-0.0609756112,0.0,0.0609756112
2023-11-21 20:58:58.490,3.0,5.5999999046,333.0,-104.0,196.0,1984.0,0.0,0.0609756112,0.0
2023-11-21 20:58:58.500,3.0,5.5999999046,333.0,-104.0,195.0,1984.0,0.0609756112,0.0,0.0
2023-11-21 20:58:58.510,3.0,5.5999999046,333.0,-106.0,195.0,1984.0,0.0,0.0,0.0609756112
2023-11-21 20:58:58.520,3.0,5.5999999046,333.0,-105.0,194.0,1984.0,-0.0609756112,0.0,0.0
2023-11-21 20:58:58.530,3.0,5.5999999046,333.0,-105.0,194.0,1984.0,-0.0609756112,0.0,0.0
2023-11-21 20:58:58.540,3.0,5.5999999046,333.0,-103.0,196.0,1985.0,-0.0609756112,0.0,0.0609756112
2023-11-21 20:58:58.550,3.0,5.5999999046,333.0,-103.5,196.5,1985.0,0.0304878056,0.0,0.0304878056
2023-11-21 20:58:58.560,3.0,5.5999999046,333.0,-104.0,197.0,1985.0,0.1219512224,0.0,0.0
2023-11-21 20:58:58.570,3.0,5.5999999046,333.0,-104.0,196.0,1985.0,0.0609756112,0.0,0.0
2023-11-21 20:58:58.580,3.0,5.5999999046,333.0,-104.5,195.5,1984.5,0.0304878056,0.0,0.0304878056
2023-11-21 20:58:58.590,3.0,5.5999999046,333.0,-105.0,195.0,1984.0,0.0,0.0,0.0609756112
2023-11-21 20:58:58.600,3.0,5.5999999046,333.0,-105.0,197.0,1984.0,0.0609756112,0.0,0.0
2023-11-21 20:58:58.610,3.0,5.5999999046,333.0,-103.0,195.0,1984.0,0.0609756112,0.0,-0.0609756112
2023-11-21 20:58:58.620,3.0,5.5999999046,333.0,-103.5,195.5,1984.5,0.0304878056,0.0,-0.0304878056
2023-11-21 20:58:58.630,3.0,5.5999999046,333.0,-104.0,196.0,1985.0,0.0,0.0,0.0
2023-11-21 20:58:58.640,3.0,5.5999999046,333.0,-104.0,195.0,1985.0,0.0,0.0,0.0
2023-11-21 20:58:58.650,3.0,5.5999999046,333.0,-103.0,195.0,1983.0,0.0,0.0,0.0
2023-11-21 20:58:58.660,3.0,5.5999999046,333.0,-103.0,195.0,1983.0,0.0,0.0,0.0
2023-11-21 20:58:58.670,3.0,5.5999999046,333.0,-103.0,195.0,1983.0,0.0,0.0,0.0
2023-11-21 20:58:58.680,3.0,5.5999999046,333.0,-105.0,196.0,1985.0,0.0,-0.0609756112,-0.0609756112
2023-11-21 20:58:58.690,3.0,5.5999999046,333.0,-104.0,196.0,1984.0,0.0,0.0609756112,0.0
2023-11-21 20:58:58.700,3.0,5.5999999046,333.0,-104.0,196.0,1983.3333333333333,-0.04065040746666667,0.020325203733333335,-0.04065040746666667
2023-11-21 20:58:58.710,3.0,5.5999999046,333.0,-104.5,197.0,1983.1666666666665,-0.020325203733333335,0.04065040746666666,0.01016260186666667
2023-11-21 20:58:58.720,3.0,5.5999999046,333.0,-105.0,198.0,1983.0,0.0,0.0609756112,0.0609756112
2023-11-21 20:58:58.730,3.0,5.5999999046,333.0,-106.0,197.0,1984.0,0.0,0.0,-0.0609756112
2023-11-21 20:58:58.740,3.0,5.5999999046,333.0,-104.0,196.0,1985.0,0.0,0.0609756112,0.0609756112
2023-11-21 20:58:58.750,3.0,5.5999999046,333.0,-104.0,196.0,1985.0,0.0,0.0609756112,0.0609756112
2023-11-21 20:58:58.760,3.0,5.5999999046,333.0,-105.0,198.0,1983.0,0.0,0.0,0.0609756112
2023-11-21 20:58:58.770,3.0,5.5999999046,333.0,-104.0,196.0,1985.0,0.0609756112,0.0,0.0
2023-11-21 20:58:58.780,3.0,5.5999999046,333.0,-103.0,194.0,1984.0,0.0609756112,-0.0609756112,0.0609756112
2023-11-21 20:58:58.790,3.0,5.5999999046,333.0,-103.0,195.0,1984.0,0.0,-0.0609756112,0.0
2023-11-21 20:58:58.800,3.0,5.5999999046,333.0,-104.0,198.0,1984.0,0.0,0.0609756112,-0.0609756112
2023-11-21 20:58:58.810,3.0,5.5999999046,333.0,-104.5,197.5,1983.5,-0.0304878056,0.0609756112,-0.0304878056
2023-11-21 20:58:58.820,3.0,5.5999999046,333.0,-105.0,197.0,1983.0,-0.0609756112,0.0609756112,0.0
2023-11-21 20:58:58.830,3.0,5.5999999046,333.0,-105.0,195.0,1983.0,0.0,-0.0609756112,0.0609756112
2023-11-21 20:58:58.840,3.0,5.5999999046,333.0,-106.0,195.0,1984.0,-0.0609756112,0.0,0.0
2023-11-21 20:58:58.850,3.0,5.5999999046,333.0,-105.0,194.5,1983.5,0.0,0.0304878056,0.0304878056
2023-11-21 20:58:58.860,3.0,5.5999999046,333.0,-104.0,194.0,1983.0,0.0609756112,0.0609756112,0.0609756112
2023-11-21 20:58:58.870,3.0,5.5999999046,333.0,-104.0,194.0,1984.0,0.0,0.0,0.0
2023-11-21 20:58:58.880,3.0,5.5999999046,333.0,-103.0,194.0,1983.0,0.0,0.0,0.0
2023-11-21 20:58:58.890,3.0,5.5999999046,333.0,-104.0,195.0,1983.5,0.0,0.0,0.0
2023-11-21 20:58:58.900,3.0,5.5999999046,333.0,-105.0,196.0,1984.0,0.0,0.0,0.0
2023-11-21 20:58:58.910,3.0,5.5999999046,333.0,-105.0,197.0,1984.0,0.0609756112,0.0,-0.0609756112
2023-11-21 20:58:58.920,3.0,5.5999999046,333.0,-104.5,196.0,1983.5,0.0304878056,0.0,-0.0304878056
2023-11-21 20:58:58.930,3.0,5.5999999046,333.0,-104.0,195.0,1983.0,0.0,0.0,0.0
2023-11-21 20:58:58.940,3.0,5.5999999046,333.0,-105.0,196.0,1982.0,0.0,0.0609756112,0.0
2023-11-21 20:58:58.950,3.0,5.5999999046,333.0,-105.0,196.0,1982.0,0.0,0.0,0.0609756112
2023-11-21 20:58:58.960,3.0,5.5999999046,333.0,-105.0,196.0,1983.0,0.0,-0.0609756112,-0.0609756112
2023-11-21 20:58:58.970,3.0,5.5999999046,333.0,-105.0,196.0,1983.0,0.0,-0.0609756112,-0.0609756112
2023-11-21 20:58:58.980,3.0,5.5999999046,333.0,-103.0,196.0,1983.0,0.0,0.0,-0.0609756112
2023-11-21 20:58:58.990,3.0,5.5999999046,333.0,-103.0,198.0,1982.0,-0.1219512224,0.0,0.0
2023-11-21 20:58:59.000,3.0,5.5999999046,333.0,-102.5,196.5,1983.0,-0.0914634168,-0.0304878056,0.0304878056
2023-11-21 20:58:59.010,3.0,5.5999999046,333.0,-102.0,195.0,1984.0,-0.0609756112,-0.0609756112,0.0609756112
2023-11-21 20:58:59.020,3.0,5.5999999046,333.0,-104.0,196.0,1984.0,0.0609756112,-0.0609756112,-0.0609756112
2023-11-21 20:58:59.030,3.0,5.5999999046,333.0,-104.0,195.0,1983.0,0.0609756112,-0.0609756112,-0.0609756112
2023-11-21 20:58:59.040,3.0,5.5999999046,333.0,-104.0,195.0,1983.0,0.0609756112,-0.0609756112,-0.0609756112
2023-11-21 20:58:59.050,3.0,5.5999999046,333.0,-106.0,197.0,1983.0,0.0,-0.0609756112,0.0
2023-11-21 20:58:59.060,3.0,5.5999999046,333.0,-104.0,199.0,1982.0,0.0,0.0,0.0609756112
2023-11-21 20:58:59.070,3.0,5.5999999046,333.0,-104.0,199.0,1982.0,0.0,0.0,0.0609756112
2023-11-21 20:58:59.080,3.0,5.5999999046,333.0,-105.0,196.0,1982.0,0.0609756112,0.0,0.0609756112
2023-11-21 20:58:59.090,3.0,5.5999999046,333.0,-105.0,196.0,1983.0,0.0609756112,0.0,-0.0609756112
2023-11-21 20:58:59.100,3.0,5.5999999046,333.0,-105.0,195.0,1983.0,0.0609756112,0.0,0.0
2023-11-21 20:58:59.110,3.0,5.5999999046,333.0,-105.0,195.0,1983.0,0.0609756112,0.0,0.0
2023-11-21 20:58:59.120,3.0,5.5999999046,333.0,-105.0,198.0,1982.0,0.0609756112,0.0,0.0
2023-11-21 20:58:59.130,3.0,5.5999999046,333.0,-104.0,197.0,1981.0,0.0609756112,0.0,-0.0609756112
2023-11-21 20:58:59.140,3.0,5.5999999046,333.0,-103.0,196.0,1982.0,0.0,-0.0609756112,0.0
2023-11-21 20:58:59.150,3.0,5.5999999046,333.0,-103.0,196.0,1982.0,0.0,-0.0609756112,0.0
2023-11-21 20:58:59.160,3.0,5.5999999046,333.0,-106.0,197.0,1981.0,-0.0609756112,0.0,-0.0609756112
2023-11-21 20:58:59.170,3.0,5.5999999046,333.0,-105.0,196.5,1981.0,0.0,0.0,-0.0304878056
2023-11-21 20:58:59.180,3.0,5.5999999046,333.0,-104.0,196.0,1981.0,0.0609756112,0.0,0.0
2023-11-21 20:58:59.190,3.0,5.5999999046,333.0,-105.0,196.0,1982.0,0.0609756112,0.0609756112,-0.0609756112
2023-11-21 20:58:59.200,3.0,5.5999999046,333.0,-103.66666666666667,194.66666666666666,1982.0,0.0609756112,-0.020325203733333335,-0.0609756112
2023-11-21 20:58:59.210,3.0,5.5999999046,333.0,-103.83333333333334,195.33333333333331,1981.0,0.0304878056,-0.010162601866666668,-0.0304878056
2023-11-21 20:58:59.220,3.0,5.5999999046,333.0,-104.0,196.0,1980.0,0.0,0.0,0.0
2023-11-21 20:58:59.230,3.0,5.5999999046,333.0,-104.0,196.0,1982.0,0.0,-0.0609756112,0.0609756112
2023-11-21 20:58:59.240,3.0,5.5999999046,333.0,-104.0,196.0,1982.0,0.0,0.0,0.0609756112
2023-11-21 20:58:59.250,3.0,5.5999999046,333.0,-104.0,196.0,1982.0,0.0,0.0,0.0609756112
2023-11-21 20:58:59.260,3.0,5.5999999046,333.0,-104.0,195.0,1982.0,0.0609756112,0.0,0.0
2023-11-21 20:58:59.270,3.0,5.5999999046,333.0,-103.0,194.0,1981.0,0.0609756112,-0.0609756112,0.0609756112
2023-11-21 20:58:59.280,3.0,5.5999999046,333.0,-102.33333333333333,194.66666666666666,1981.0,0.020325203733333335,-0.020325203733333335,-0.020325203733333335
2023-11-21 20:58:59.290,3.0,5.5999999046,333.0,-104.0,196.0,1981.0,0.0609756112,0.0609756112,-0.0609756112
2023-11-21 20:58:59.300,3.0,5.5999999046,333.0,-103.0,197.0,1980.0,0.0,0.0,-0.0609756112
2023-11-21 20:58:59.310,3.0,5.5999999046,333.0,-105.0,196.0,1981.0,0.0,0.0,0.0
2023-11-21 20:58:59.320,3.0,5.5999999046,333.0,-105.0,196.0,1980.5,0.0304878056,0.0,0.0
2023-11-21 20:58:59.330,3.0,5.5999999046,333.0,-105.0,196.0,1980.0,0.0609756112,0.0,0.0
2023-11-21 20:58:59.340,3.0,5.5999999046,333.0,-105.0,194.0,1980.0,0.0,0.0,0.0
2023-11-21 20:58:59.350,3.0,5.5999999046,333.0,-104.0,194.0,1979.0,-0.0609756112,0.0,0.0
2023-11-21 20:58:59.360,3.0,5.5999999046,333.0,-104.0,194.0,1979.0,-0.0609756112,0.0,0.0
2023-11-21 20:58:59.370,3.0,5.5999999046,333.0,-104.0,195.0,1980.0,-0.0609756112,0.0,0.0
2023-11-21 20:58:59.380,3.0,5.5999999046,333.0,-106.0,196.0,1981.0,-0.0609756112,0.0,0.0
2023-11-21 20:58:59.390,3.0,5.5999999046,333.0,-104.0,198.0,1981.0,0.0,0.0,0.0609756112
2023-11-21 20:58:59.400,3.0,5.5999999046,333.0,-104.0,198.0,1981.0,0.0,0.0,0.0609756112
2023-11-21 20:58:59.410,3.0,5.5999999046,333.0,-105.0,196.0,1980.0,0.1219512224,0.0,0.0
2023-11-21 20:58:59.420,3.0,5.5999999046,333.0,-105.0,197.0,1979.0,0.0,0.0,-0.0609756112
2023-11-21 20:58:59.430,3.0,5.5999999046,333.0,-105.0,197.0,1979.0,0.0,0.0,-0.0609756112
2023-11-21 20:58:59.440,3.0,5.5999999046,333.0,-106.0,198.0,1979.0,-0.0609756112,0.0,0.0
2023-11-21 20:58:59.450,3.0,5.5999999046,333.0,-106.0,198.0,1979.0,-0.0609756112,0.0,0.0
2023-11-21 20:58:59.460,3.0,5.5999999046,333.0,-106.0,196.0,1978.0,-0.0609756112,0.0,0.0
2023-11-21 20:58:59.470,3.0,5.5999999046,333.0,-104.0,194.0,1979.0,0.0,0.0,-0.0609756112
2023-11-21 20:58:59.480,3.0,5.5999999046,333.0,-104.0,195.0,1977.0,0.0,-0.0609756112,0.0
2023-11-21 20:58:59.490,3.0,5.5999999046,333.0,-104.0,196.5,1977.5,-0.0304878056,-0.0609756112,-0.0304878056
2023-11-21 20:58:59.500,3.0,5.6999998093,333.0,-104.0,198.0,1978.0,-0.0609756112,-0.0609756112,-0.0609756112
2023-11-21 20:58:59.510,3.0,5.6999998093,333.0,-105.0,196.0,1977.0,0.0,0.0609756112,0.0
2023-11-21 20:58:59.520,3.0,5.6999998093,333.0,-106.0,196.0,1979.0,0.0,-0.0609756112,0.0609756112
2023-11-21 20:58:59.530,3.0,5.6999998093,333.0,-105.0,195.0,1977.0,-0.0609756112,0.0609756112,0.0609756112
2023-11-21 20:58:59.540,3.0,5.6999998093,333.0,-105.0,195.0,1977.0,-0.0609756112,0.0609756112,0.0609756112
2023-11-21 20:58:59.550,3.0,5.6999998093,333.0,-104.0,197.0,1975.0,-0.0609756112,0.0,0.0
2023-11-21 20:58:59.560,3.0,5.6999998093,333.0,-106.0,198.0,1976.0,-0.0609756112,-0.0609756112,0.0
2023-11-21 20:58:59.570,3.0,5.6999998093,333.0,-104.5,197.0,1976.0,-0.0609756112,-0.0914634168,0.0
2023-11-21 20:58:59.580,3.0,5.6999998093,333.0,-103.0,196.0,1976.0,-0.0609756112,-0.1219512224,0.0
2023-11-21 20:58:59.590,3.0,5.6999998093,333.0,-104.0,196.0,1975.0,-0.0609756112,0.0,0.0
2023-11-21 20:58:59.600,3.0,5.6999998093,333.0,-105.0,198.0,1975.0,0.0,-0.0609756112,0.0609756112
2023-11-21 20:58:59.610,3.0,5.6999998093,333.0,-105.0,197.5,1975.0,0.0,0.0,0.0304878056
2023-11-21 20:58:59.620,3.0,5.6999998093,333.0,-105.0,197.0,1975.0,0.0,0.0609756112,0.0
2023-11-21 20:58:59.630,3.0,5.6999998093,333.0,-104.0,196.0,1975.0,-0.0609756112,0.0,0.0
2023-11-21 20:58:59.640,3.0,5.6999998093,333.0,-104.0,198.0,1973.0,0.0,0.0,0.0
2023-11-21 20:58:59.650,3.0,5.6999998093,333.0,-103.0,196.5,1973.0,0.0,-0.0304878056,0.0
2023-11-21 20:58:59.660,3.0,5.6999998093,333.0,-102.0,195.0,1973.0,0.0,-0.0609756112,0.0
2023-11-21 20:58:59.670,3.0,5.6999998093,333.0,-103.0,197.0,1973.0,-0.0609756112,0.0,0.0
2023-11-21 20:58:59.680,3.0,5.6999998093,333.0,-105.0,198.0,1974.0,-0.0609756112,-0.0609756112,-0.0609756112
2023-11-21 20:58:59.690,3.0,5.6999998093,333.0,-105.0,199.0,1973.0,0.0,0.0,-0.0609756112
2023-11-21 20:58:59.700,3.0,5.6999998093,333.0,-105.0,198.0,1974.0,0.0,0.0,0.0609756112
2023-11-21 20:58:59.710,3.0,5.6999998093,333.0,-105.0,198.0,1974.0,0.0609756112,0.0,0.0
2023-11-21 20:58:59.720,3.0,5.6999998093,333.0,-104.0,197.5,1973.5,0.0304878056,0.0,0.0
2023-11-21 20:58:59.730,3.0,5.6999998093,333.0,-103.0,197.0,1973.0,0.0,0.0,0.0
2023-11-21 20:58:59.740,3.0,5.6999998093,333.0,-103.0,194.0,1973.0,0.0,0.0,0.0
2023-11-21 20:58:59.750,3.0,5.6999998093,333.0,-104.0,198.0,1972.0,-0.0609756112,0.0609756112,-0.0609756112
2023-11-21 20:58:59.760,3.0,5.6999998093,333.0,-104.5,198.0,1972.5,0.0,0.0,-0.0304878056
2023-11-21 20:58:59.770,3.0,5.6999998093,333.0,-105.0,198.0,1973.0,0.0609756112,-0.0609756112,0.0
2023-11-21 20:58:59.780,3.0,5.6999998093,333.0,-104.0,197.0,1973.0,0.0609756112,0.0,0.0
2023-11-21 20:58:59.790,3.0,5.6999998093,333.0,-104.0,195.0,1972.0,0.0,0.0609756112,0.0
2023-11-21 20:58:59.800,3.0,5.6999998093,333.0,-104.0,196.0,1972.0,0.0,0.0304878056,0.0304878056
2023-11-21 20:58:59.810,3.0,5.6999998093,333.0,-104.0,197.0,1972.0,0.0,0.0,0.0609756112
2023-11-21 20:58:59.820,3.0,5.6999998093,333.0,-104.0,196.0,1973.0,-0.0609756112,-0.0609756112,0.0
2023-11-21 20:58:59.830,3.0,5.6999998093,333.0,-104.0,196.0,1973.0,-0.0609756112,-0.0609756112,0.0
2023-11-21 20:58:59.840,3.0,5.6999998093,333.0,-106.0,198.0,1974.0,-0.0609756112,-0.0609756112,0.0609756112
2023-11-21 20:58:59.850,3.0,5.6999998093,333.0,-103.0,196.0,1974.0,0.0,0.0,-0.0609756112
2023-11-21 20:58:59.860,3.0,5.6999998093,333.0,-105.0,199.0,1973.0,-0.0609756112,0.0,-0.0609756112
2023-11-21 20:58:59.870,3.0,5.6999998093,333.0,-104.5,198.0,1973.0,-0.0304878056,0.0,-0.0609756112
2023-11-21 20:58:59.880,3.0,5.6999998093,333.0,-104.0,197.0,1973.0,0.0,0.0,-0.0609756112
2023-11-21 20:58:59.890,3.0,5.6999998093,333.0,-105.0,198.0,1972.0,0.0609756112,0.0,-0.0609756112
2023-11-21 20:58:59.900,3.0,5.6999998093,333.0,-105.0,196.0,1972.0,0.0,-0.0609756112,0.0
2023-11-21 20:58:59.910,3.0,5.6999998093,333.0,-105.0,196.0,1972.0,0.0,-0.0609756112,0.0
2023-11-21 20:58:59.920,3.0,5.6999998093,333.0,-104.0,195.0,1975.0,0.0,0.0609756112,0.0
2023-11-21 20:58:59.930,3.0,5.6999998093,333.0,-104.0,197.0,1973.0,-0.0609756112,-0.0609756112,0.0609756112
2023-11-21 20:58:59.940,3.0,5.6999998093,333.0,-104.5,196.0,1974.0,-0.0609756112,-0.0304878056,0.0609756112
2023-11-21 20:58:59.950,3.0,5.6999998093,333.0,-105.0,195.0,1975.0,-0.0609756112,0.0,0.0609756112
2023-11-21 20:58:59.960,3.0,5.6999998093,333.0,-104.0,197.0,1974.0,0.0,0.0609756112,-0.0609756112
2023-11-21 20:58:59.970,3.0,5.6999998093,333.0,-104.0,197.0,1974.0,0.0,0.0609756112,-0.0609756112
2023-11-21 20:58:59.980,3.0,5.6999998093,333.0,-104.0,194.0,1973.0,0.0609756112,0.0,0.0
2023-11-21 20:58:59.990,3.0,5.6999998093,333.0,-103.0,195.0,1973.0,-0.0609756112,0.0609756112,0.0
2023-11-21 20:59:00.000,3.0,5.6999998093,333.0,-104.0,196.0,1972.0,0.0,-0.0609756112,0.0609756112
2023-11-21 20:59:00.010,3.0,5.6999998093,333.0,-104.0,196.0,1972.0,0.0304878056,-0.0609756112,0.0609756112
2023-11-21 20:59:00.020,3.0,5.6999998093,333.0,-104.0,196.0,1972.0,0.0609756112,-0.0609756112,0.0609756112
2023-11-21 20:59:00.030,3.0,5.6999998093,333.0,-102.0,194.0,1973.0,0.0609756112,-0.0609756112,0.0
2023-11-21 20:59:00.040,3.0,5.6999998093,333.0,-104.0,198.0,1974.0,0.0609756112,-0.0609756112,0.0
2023-11-21 20:59:00.050,3.0,5.6999998093,333.0,-104.0,197.0,1974.0,-0.0304878056,-0.0304878056,0.0304878056
2023-11-21 20:59:00.060,3.0,5.6999998093,333.0,-104.0,196.0,1974.0,-0.1219512224,0.0,0.0609756112
2023-11-21 20:59:00.070,3.0,5.6999998093,333.0,-106.0,198.0,1974.0,0.0,0.0,0.0
2023-11-21 20:59:00.080,3.0,5.6999998093,333.0,-106.0,198.0,1974.0,0.0,0.0,0.0
2023-11-21 20:59:00.090,3.0,5.6999998093,333.0,-106.0,198.0,1975.0,0.0609756112,0.0,0.0
2023-11-21 20:59:00.100,3.0,5.6999998093,333.0,-105.0,195.0,1976.0,0.0,0.1219512224,0.0609756112
2023-11-21 20:59:00.110,3.0,5.6999998093,333.0,-103.0,196.0,1976.0,0.0,-0.0609756112,0.0609756112
2023-11-21 20:59:00.120,3.0,5.6999998093,333.0,-104.0,196.5,1976.0,0.0304878056,-0.0304878056,0.0
2023-11-21 20:59:00.130,3.0,5.6999998093,333.0,-105.0,197.0,1976.0,0.0609756112,0.0,-0.0609756112
2023-11-21 20:59:00.140,3.0,5.6999998093,333.0,-105.0,197.0,1975.0,0.0609756112,0.0,0.0
2023-11-21 20:59:00.150,3.0,5.6999998093,333.0,-105.0,195.0,1974.0,0.0,0.0,0.0
2023-11-21 20:59:00.160,3.0,5.6999998093,333.0,-105.0,196.0,1976.0,-0.0609756112,0.0,0.0609756112
2023-11-21 20:59:00.170,3.0,5.6999998093,333.0,-105.0,196.0,1976.0,-0.0609756112,0.0,0.0609756112
2023-11-21 20:59:00.180,3.0,5.6999998093,333.0,-103.0,197.0,1975.0,0.0,0.0,0.0
2023-11-21 20:59:00.190,3.0,5.6999998093,333.0,-104.0,198.0,1976.0,0.0,0.0,0.0
2023-11-21 20:59:00.200,3.0,5.6999998093,333.0,-104.0,196.5,1975.5,0.0304878056,0.0,0.0
2023-11-21 20:59:00.210,3.0,5.6999998093,333.0,-104.0,195.0,1975.0,0.0609756112,0.0,0.0
2023-11-21 20:59:00.220,3.0,5.6999998093,333.0,-105.0,197.0,1976.0,-0.0609756112,0.0609756112,-0.0609756112
2023-11-21 20:59:00.230,3.0,5.6999998093,333.0,-105.0,197.0,1976.0,-0.0609756112,0.0609756112,-0.0609756112
2023-11-21 20:59:00.240,3.0,5.6999998093,333.0,-105.0,197.0,1976.0,0.0609756112,-0.0609756112,0.0609756112
2023-11-21 20:59:00.250,3.0,5.6999998093,333.0,-106.0,196.0,1978.0,0.0,0.0,0.0
2023-11-21 20:59:00.260,3.0,5.6999998093,333.0,-106.0,197.5,1977.0,-0.0304878056,-0.0304878056,0.0304878056
2023-11-21 20:59:00.270,3.0,5.6999998093,333.0,-106.0,199.0,1976.0,-0.0609756112,-0.0609756112,0.0609756112
2023-11-21 20:59:00.280,3.0,5.6999998093,333.0,-103.0,196.0,1976.0,0.0,0.0,-0.0609756112
2023-11-21 20:59:00.290,3.0,5.6999998093,333.0,-105.0,195.0,1975.0,-0.0609756112,0.0609756112,0.0
2023-11-21 20:59:00.300,3.0,5.6999998093,333.0,-104.5,195.5,1975.5,-0.0304878056,0.0609756112,0.0304878056
2023-11-21 20:59:00.310,3.0,5.6999998093,333.0,-104.0,196.0,1976.0,0.0,0.0609756112,0.0609756112
2023-11-21 20:59:00.320,3.0,5.6999998093,333.0,-105.0,196.0,1977.0,0.0609756112,0.0,0.0
2023-11-21 20:59:00.330,3.0,5.6999998093,333.0,-103.0,195.0,1975.0,-0.0609756112,-0.0609756112,-0.0609756112
2023-11-21 20:59:00.340,3.0,5.6999998093,333.0,-105.0,195.0,1974.0,0.0,-0.0609756112,0.0
2023-11-21 20:59:00.350,3.0,5.6999998093,333.0,-105.0,196.0,1975.0,0.0609756112,0.0,0.0609756112
2023-11-21 20:59:00.360,3.0,5.6999998093,333.0,-104.5,196.5,1974.5,0.0609756112,0.0,0.0304878056
2023-11-21 20:59:00.370,3.0,5.6999998093,333.0,-104.0,197.0,1974.0,0.0609756112,0.0,0.0
2023-11-21 20:59:00.380,3.0,5.6999998093,333.0,-105.0,196.0,1974.0,0.1219512224,0.0,0.0
2023-11-21 20:59:00.390,3.0,5.6999998093,333.0,-106.0,197.0,1973.0,-0.0609756112,0.0,-0.0609756112
2023-11-21 20:59:00.400,3.0,5.6999998093,333.0,-104.0,197.0,1973.0,-0.0609756112,0.0609756112,0.0
2023-11-21 20:59:00.410,3.0,5.6999998093,333.0,-104.0,197.0,1973.0,-0.0609756112,0.0304878056,0.0304878056
2023-11-21 20:59:00.420,3.0,5.6999998093,333.0,-104.0,197.0,1973.0,-0.0609756112,0.0,0.0609756112
2023-11-21 20:59:00.430,3.0,5.6999998093,333.0,-104.0,196.0,1973.0,0.0,0.0,0.0
2023-11-21 20:59:00.440,3.0,5.6999998093,333.0,-103.0,195.0,1974.0,0.0609756112,0.0,-0.0609756112
2023-11-21 20:59:00.450,3.0,5.6999998093,333.0,-104.0,195.75,1973.75,0.0152439028,0.0,-0.0152439028
2023-11-21 20:59:00.460,3.0,5.6999998093,333.0,-105.0,196.5,1973.5,-0.0304878056,0.0,0.0304878056
2023-11-21 20:59:00.470,3.0,5.6999998093,333.0,-105.0,196.5,1973.0,-0.0304878056,0.0,0.0609756112
2023-11-21 20:59:00.480,3.0,5.6999998093,333.0,-105.0,196.0,1972.0,0.0,0.0609756112,0.0609756112
2023-11-21 20:59:00.490,3.0,5.6999998093,333.0,-107.0,198.0,1971.0,0.0609756112,-0.0609756112,0.0
2023-11-21 20:59:00.500,3.0,5.6999998093,333.0,-105.0,197.0,1972.0,0.0,0.0609756112,-0.0609756112
2023-11-21 20:59:00.510,3.0,5.6999998093,333.0,-106.0,197.0,1971.0,0.0,0.0,0.0
2023-11-21 20:59:00.520,3.0,5.6999998093,333.0,-106.0,197.0,1971.0,0.0,0.0,0.0
2023-11-21 20:59:00.530,3.0,5.6999998093,333.0,-106.0,197.0,1971.0,0.0,-0.0609756112,0.0
2023-11-21 20:59:00.540,3.0,5.6999998093,333.0,-103.0,196.0,1972.0,0.0,0.0,0.0
2023-11-21 20:59:00.550,3.0,5.6999998093,333.0,-104.5,197.0,1972.0,0.0,0.0,0.0
2023-11-21 20:59:00.560,3.0,5.6999998093,333.0,-106.0,198.0,1972.0,0.0,0.0,0.0
2023-11-21 20:59:00.570,3.0,5.6999998093,333.0,-105.0,196.0,1971.0,0.0609756112,0.0,0.0
2023-11-21 20:59:00.580,3.0,5.6999998093,333.0,-104.0,194.0,1971.0,0.0,-0.0609756112,-0.0609756112
2023-11-21 20:59:00.590,3.0,5.6999998093,333.0,-104.0,194.0,1971.0,0.0,-0.0609756112,-0.0609756112
2023-11-21 20:59:00.600,3.0,5.6999998093,333.0,-104.0,196.0,1970.0,0.0,0.0,0.0
2023-11-21 20:59:00.610,3.0,5.6999998093,333.0,-104.0,197.0,1970.0,0.0,-0.0609756112,0.0
2023-11-21 20:59:00.620,3.0,5.6999998093,333.0,-104.0,197.0,1970.0,0.0,-0.0609756112,0.0
2023-11-21 20:59:00.630,3.0,5.6999998093,333.0,-107.0,197.0,1971.0,-0.0609756112,-0.0609756112,-0.0609756112
2023-11-21 20:59:00.640,3.0,5.6999998093,333.0,-102.0,197.0,1968.0,-0.0609756112,0.0,0.0
2023-11-21 20:59:00.650,3.0,5.6999998093,333.0,-104.0,198.0,1970.0,-0.0609756112,0.0,-0.0609756112
2023-11-21 20:59:00.660,3.0,5.6999998093,333.0,-104.0,198.0,1970.0,-0.0609756112,0.0,-0.0609756112
2023-11-21 20:59:00.670,3.0,5.6999998093,333.0,-104.0,197.0,1971.0,0.0,0.0,-0.0609756112
2023-11-21 20:59:00.680,3.0,5.6999998093,333.0,-104.0,197.0,1970.0,0.0609756112,0.0,-0.0609756112
2023-11-21 20:59:00.690,3.0,5.6999998093,333.0,-103.0,194.0,1971.0,0.0,0.0,0.0
2023-11-21 20:59:00.700,3.0,5.6999998093,333.0,-103.66666666666667,194.66666666666666,1970.3333333333333,0.0,0.0,-0.04065040746666667
2023-11-21 20:59:00.710,3.0,5.6999998093,333.0,-105.08333333333334,196.33333333333331,1969.9166666666665,0.0152439028,0.0,-0.03556910653333334
2023-11-21 20:59:00.720,3.0,5.6999998093,333.0,-106.5,198.0,1969.5,0.0304878056,0.0,-0.0304878056
2023-11-21 20:59:00.730,3.0,5.6999998093,333.0,-105.5,197.0,1970.5,0.0,0.0,0.0
2023-11-21 20:59:00.740,3.0,5.6999998093,333.0,-104.0,196.0,1971.0,-0.0609756112,0.0,0.0
2023-11-21 20:59:00.750,3.0,5.6999998093,333.0,-105.0,196.0,1970.0,-0.0609756112,0.0,-0.0609756112
2023-11-21 20:59:00.760,3.0,5.6999998093,333.0,-103.0,195.0,1969.0,0.0609756112,-0.0609756112,-0.0609756112
2023-11-21 20:59:00.770,3.0,5.6999998093,333.0,-104.0,195.0,1970.0,0.0,0.0,0.0609756112
2023-11-21 20:59:00.780,3.0,5.6999998093,333.0,-104.0,195.0,1970.0,0.0,0.0,0.0609756112
2023-11-21 20:59:00.790,3.0,5.6999998093,333.0,-106.0,199.0,1970.0,0.0,0.0,-0.0609756112
2023-11-21 20:59:00.800,3.0,5.6999998093,332.5,-105.0,196.0,1970.0,0.0609756112,-0.0609756112,0.0
2023-11-21 20:59:00.810,3.0,5.6999998093,332.0,-105.0,195.0,1972.0,0.0609756112,0.0609756112,0.0
2023-11-21 20:59:00.820,3.0,5.6999998093,332.0,-105.0,195.0,1972.0,0.0609756112,0.0609756112,0.0
2023-11-21 20:59:00.830,3.0,5.6999998093,332.0,-103.0,195.0,1970.0,0.0,0.0,0.0
2023-11-21 20:59:00.840,3.0,5.6999998093,332.0,-105.0,197.0,1973.0,0.0,0.0609756112,0.0609756112
2023-11-21 20:59:00.850,3.0,5.6999998093,332.0,-104.0,196.0,1971.0,0.0,0.0,0.0
2023-11-21 20:59:00.860,3.0,5.6999998093,332.0,-104.0,196.0,1971.0,0.0,0.0,0.0
2023-11-21 20:59:00.870,3.0,5.6999998093,332.0,-103.0,195.0,1972.0,0.0,0.0,0.0
2023-11-21 20:59:00.880,3.0,5.6999998093,332.0,-102.0,195.0,1972.0,-0.0609756112,0.0,0.0
2023-11-21 20:59:00.890,3.0,5.6999998093,332.0,-102.0,195.0,1972.0,-0.0609756112,0.0,0.0
2023-11-21 20:59:00.900,3.0,5.6999998093,332.0,-103.0,196.0,1971.0,0.0609756112,0.0,0.0
2023-11-21 20:59:00.910,3.0,5.6999998093,332.0,-105.0,196.0,1971.0,-0.0609756112,0.0,0.1219512224
2023-11-21 20:59:00.920,3.0,5.6999998093,332.0,-104.0,197.0,1971.0,0.0609756112,0.0609756112,0.1219512224
2023-11-21 20:59:00.930,3.0,5.6999998093,332.0,-104.0,196.5,1971.0,0.0609756112,0.0,0.0914634168
2023-11-21 20:59:00.940,3.0,5.6999998093,332.0,-104.0,196.0,1971.0,0.0609756112,-0.0609756112,0.0609756112
2023-11-21 20:59:00.950,3.0,5.6999998093,332.0,-104.0,196.0,1970.0,0.0,-0.0609756112,0.0
2023-11-21 20:59:00.960,3.0,5.6999998093,332.0,-105.0,197.0,1971.0,-0.0609756112,0.0609756112,0.0
2023-11-21 20:59:00.970,3.0,5.6999998093,332.0,-105.0,195.0,1973.0,-0.0609756112,0.0,0.0
2023-11-21 20:59:00.980,3.0,5.6999998093,332.0,-103.5,194.5,1972.0,-0.0304878056,0.0,0.0
2023-11-21 20:59:00.990,3.0,5.6999998093,332.0,-102.0,194.0,1971.0,0.0,0.0,0.0
2023-11-21 20:59:01.000,3.0,5.6999998093,332.0,-103.0,195.0,1971.0,0.0609756112,0.0,-0.0609756112
2023-11-21 20:59:01.010,3.0,5.6999998093,332.0,-103.0,195.0,1971.0,0.0609756112,0.0,-0.0609756112
2023-11-21 20:59:01.020,3.0,5.6999998093,332.0,-106.0,198.0,1971.0,-0.0609756112,0.0,-0.0609756112
2023-11-21 20:59:01.030,3.0,5.6999998093,332.0,-105.0,197.0,1971.0,0.0609756112,0.0,0.0
2023-11-21 20:59:01.040,3.0,5.6999998093,332.0,-104.0,195.0,1973.0,-0.0609756112,-0.1219512224,0.0
2023-11-21 20:59:01.050,3.0,5.6999998093,332.0,-104.0,195.0,1973.0,-0.0609756112,-0.1219512224,0.0
2023-11-21 20:59:01.060,3.0,5.6999998093,332.0,-104.0,196.0,1972.0,0.0,0.0,0.0609756112
2023-11-21 20:59:01.070,3.0,5.6999998093,332.0,-103.0,197.0,1971.0,0.0609756112,0.0,-0.0609756112
2023-11-21 20:59:01.080,3.0,5.6999998093,332.0,-105.0,195.0,1975.0,-0.0609756112,0.0,0.0609756112
2023-11-21 20:59:01.090,3.0,5.6999998093,332.0,-104.0,195.0,1973.5,-0.0304878056,0.0,0.0609756112
2023-11-21 20:59:01.100,3.0,5.6999998093,332.0,-103.0,195.0,1972.0,0.0,0.0,0.0609756112
2023-11-21 20:59:01.110,3.0,5.6999998093,332.0,-102.0,194.0,1972.0,0.0,-0.0609756112,0.0
2023-11-21 20:59:01.120,3.0,5.6999998093,332.0,-102.5,194.5,1971.5,0.0,-0.0304878056,0.0
2023-11-21 20:59:01.130,3.0,5.6999998093,332.0,-103.0,195.0,1971.0,0.0,0.0,0.0
2023-11-21 20:59:01.140,3.0,5.6999998093,332.0,-104.0,195.5,1971.5,-0.0304878056,0.0,-0.0304878056
2023-11-21 20:59:01.150,3.0,5.6999998093,332.0,-105.0,196.0,1972.0,-0.0609756112,0.0,-0.0609756112
2023-11-21 20:59:01.160,3.0,5.6999998093,332.0,-104.0,197.0,1972.0,0.0,0.0,-0.0609756112
2023-11-21 20:59:01.170,3.0,5.6999998093,332.0,-106.0,197.0,1972.0,0.0609756112,-0.0609756112,0.0
2023-11-21 20:59:01.180,3.0,5.6999998093,332.0,-105.0,197.0,1972.0,0.0,-0.0609756112,-0.0609756112
2023-11-21 20:59:01.190,3.0,5.6999998093,332.0,-105.0,197.0,1972.0,0.0,-0.0609756112,-0.0609756112
2023-11-21 20:59:01.200,3.0,5.6999998093,332.0,-103.0,195.0,1971.0,-0.0609756112,0.0609756112,0.0609756112
2023-11-21 20:59:01.210,3.0,5.6999998093,332.0,-103.0,195.0,1971.0,0.0609756112,-0.0609756112,0.0
2023-11-21 20:59:01.220,3.0,5.6999998093,332.0,-105.0,196.0,1973.0,0.0,0.0,0.0
2023-11-21 20:59:01.230,3.0,5.6999998093,332.0,-105.0,196.0,1973.0,0.0,0.0,0.0
2023-11-21 20:59:01.240,3.0,5.6999998093,332.0,-104.0,196.0,1972.0,0.0609756112,0.0,0.0609756112
2023-11-21 20:59:01.250,3.0,5.6999998093,332.0,-104.5,196.5,1970.5,0.0609756112,0.0,0.0
2023-11-21 20:59:01.260,3.0,5.6999998093,332.0,-105.0,197.0,1969.0,0.0609756112,0.0,-0.0609756112
2023-11-21 20:59:01.270,3.0,5.6999998093,332.0,-106.0,199.0,1969.0,-0.0609756112,0.0,0.0
2023-11-21 20:59:01.280,3.0,5.6999998093,332.0,-105.0,197.0,1968.5,-0.0914634168,-0.0304878056,-0.0304878056
2023-11-21 20:59:01.290,3.0,5.6999998093,332.0,-104.0,195.0,1968.0,-0.1219512224,-0.0609756112,-0.0609756112
2023-11-21 20:59:01.300,3.0,5.6999998093,332.0,-106.0,196.0,1969.0,0.0,-0.0609756112,0.0
2023-11-21 20:59:01.310,3.0,5.6999998093,332.5,-104.0,196.0,1969.0,0.0,-0.0609756112,0.0
2023-11-21 20:59:01.320,3.0,5.6999998093,332.75,-104.0,196.5,1969.0,0.0,-0.0914634168,0.0
2023-11-21 20:59:01.330,3.0,5.6999998093,333.0,-104.0,197.0,1969.0,0.0,-0.1219512224,0.0
2023-11-21 20:59:01.340,3.0,5.6999998093,332.5,-103.0,197.0,1970.0,0.0609756112,0.0,0.0609756112
2023-11-21 20:59:01.350,3.0,5.6999998093,332.0,-104.0,196.0,1969.0,0.0,-0.0609756112,-0.0609756112
2023-11-21 20:59:01.360,3.0,5.6999998093,332.0,-104.5,195.5,1968.5,0.0,-0.0609756112,-0.0609756112
2023-11-21 20:59:01.370,3.0,5.6999998093,332.0,-105.0,195.0,1968.0,0.0,-0.0609756112,-0.0609756112
2023-11-21 20:59:01.380,3.0,5.6999998093,333.0,-105.0,195.0,1968.0,0.0,-0.0609756112,-0.0609756112
2023-11-21 20:59:01.390,3.0,5.6999998093,333.0,-106.0,199.0,1967.0,0.0,0.0609756112,0.0
2023-11-21 20:59:01.400,3.0,5.6999998093,333.0,-103.0,195.0,1967.0,0.0,0.0,0.0609756112
2023-11-21 20:59:01.410,3.0,5.6999998093,333.0,-105.0,196.0,1968.0,0.1219512224,0.0,0.0
2023-11-21 20:59:01.420,3.0,5.6999998093,333.0,-105.0,196.0,1968.0,0.1219512224,0.0,0.0
2023-11-21 20:59:01.430,3.0,5.6999998093,333.0,-105.0,197.0,1969.0,-0.0609756112,0.0609756112,-0.0609756112
2023-11-21 20:59:01.440,3.0,5.6999998093,333.0,-104.0,194.0,1968.0,0.0,0.0,-0.0609756112
2023-11-21 20:59:01.450,3.0,5.6999998093,333.0,-105.0,195.0,1968.0,0.0609756112,0.0609756112,0.0609756112
2023-11-21 20:59:01.460,3.0,5.6999998093,333.0,-105.0,195.0,1968.0,0.0609756112,0.0609756112,0.0609756112
2023-11-21 20:59:01.470,3.0,5.6999998093,333.0,-103.0,196.0,1968.0,0.0609756112,0.0,0.0
2023-11-21 20:59:01.480,3.0,5.6999998093,333.0,-105.0,195.0,1968.0,0.0,0.0,0.0
2023-11-21 20:59:01.490,3.0,5.6999998093,333.0,-104.0,196.0,1969.0,0.0,-0.0609756112,-0.0609756112
2023-11-21 20:59:01.500,3.0,5.6999998093,332.5,-105.0,195.0,1968.0,-0.1219512224,0.0,0.0609756112
2023-11-21 20:59:01.510,3.0,5.6999998093,332.25,-104.5,195.5,1968.5,0.0,0.0,0.0304878056
2023-11-21 20:59:01.520,3.0,5.6999998093,332.0,-104.0,196.0,1969.0,0.1219512224,0.0,0.0
2023-11-21 20:59:01.530,3.0,5.6999998093,332.0,-103.0,195.0,1968.0,0.0,-0.0609756112,0.0
2023-11-21 20:59:01.540,3.0,5.6999998093,332.0,-104.0,196.0,1967.0,0.1219512224,-0.0609756112,0.0
2023-11-21 20:59:01.550,3.0,5.6999998093,332.0,-104.0,196.0,1967.0,0.1219512224,-0.0609756112,0.0
2023-11-21 20:59:01.560,3.0,5.6999998093,332.0,-105.0,198.0,1966.0,-0.0609756112,0.0,0.0
2023-11-21 20:59:01.570,3.0,5.6999998093,332.0,-105.0,196.0,1968.0,0.0,0.0609756112,0.0
2023-11-21 20:59:01.580,3.0,5.6999998093,332.0,-103.0,194.0,1968.0,0.0,-0.0609756112,0.0
2023-11-21 20:59:01.590,3.0,5.6999998093,332.0,-104.0,195.0,1967.0,0.0609756112,0.0,0.0
2023-11-21 20:59:01.600,3.0,5.6999998093,332.0,-104.0,195.0,1967.0,0.0609756112,0.0,0.0
2023-11-21 20:59:01.610,3.0,5.6999998093,332.0,-105.0,196.0,1967.0,-0.0609756112,0.0,0.0
2023-11-21 20:59:01.620,3.0,5.6999998093,332.0,-104.5,196.0,1966.5,-0.0609756112,-0.0304878056,-0.0304878056
2023-11-21 20:59:01.630,3.0,5.6999998093,332.0,-104.0,196.0,1966.0,-0.0609756112,-0.0609756112,-0.0609756112
2023-11-21 20:59:01.640,3.0,5.6999998093,332.0,-104.0,198.0,1968.0,0.0,0.0,0.0
2023-11-21 20:59:01.650,3.0,5.6999998093,332.0,-105.0,196.0,1967.0,0.0609756112,0.0,0.0
2023-11-21 20:59:01.660,3.0,5.6999998093,332.0,-107.0,197.0,1966.0,0.0609756112,0.0,0.0609756112
2023-11-21 20:59:01.670,3.0,5.6999998093,332.0,-107.0,197.0,1966.0,0.0609756112,0.0,0.0609756112
2023-11-21 20:59:01.680,3.0,5.6999998093,332.0,-104.0,195.0,1966.0,0.0,-0.0609756112,0.0
2023-11-21 20:59:01.690,3.0,5.6999998093,332.0,-104.0,195.0,1967.0,-0.0609756112,0.0,0.0609756112
2023-11-21 20:59:01.700,3.0,5.6999998093,332.0,-104.0,195.0,1965.0,0.0609756112,-0.0609756112,-0.0609756112
2023-11-21 20:59:01.710,3.0,5.6999998093,332.0,-104.0,195.0,1965.0,0.0609756112,-0.0609756112,-0.0609756112
2023-11-21 20:59:01.720,3.0,5.6999998093,332.0,-103.0,196.0,1964.0,0.0,0.0,0.0
2023-11-21 20:59:01.730,3.0,5.6999998093,332.0,-105.0,197.0,1965.0,0.0609756112,0.0,0.0609756112
2023-11-21 20:59:01.740,3.0,5.6999998093,332.0,-105.0,197.66666666666666,1964.6666666666667,0.04065040746666666,-0.020325203733333335,0.02032520373333333
2023-11-21 20:59:01.750,3.0,5.6999998093,332.0,-105.0,198.33333333333334,1964.3333333333333,0.02032520373333333,-0.04065040746666667,-0.02032520373333334
2023-11-21 20:59:01.760,3.0,5.6999998093,332.0,-105.0,199.0,1964.0,0.0,-0.0609756112,-0.0609756112
2023-11-21 20:59:01.770,3.0,5.6999998093,332.0,-107.0,198.0,1965.0,0.0609756112,0.0,-0.0609756112
2023-11-21 20:59:01.780,3.0,5.6999998093,332.0,-105.0,197.0,1964.0,0.0609756112,0.0609756112,0.0
2023-11-21 20:59:01.790,3.0,5.6999998093,332.0,-104.0,195.0,1964.0,0.0609756112,0.0609756112,-0.0609756112
2023-11-21 20:59:01.800,3.0,5.6999998093,332.0,-104.0,195.0,1964.0,0.0609756112,0.0609756112,-0.0609756112
2023-11-21 20:59:01.810,3.0,5.6999998093,332.0,-105.0,195.0,1964.0,-0.0609756112,0.0,0.0609756112
2023-11-21 20:59:01.820,3.0,5.6999998093,332.0,-105.0,196.0,1964.0,0.0,0.0,0.0609756112
2023-11-21 20:59:01.830,3.0,5.6999998093,332.0,-106.0,197.0,1963.0,0.0609756112,-0.0609756112,0.0
2023-11-21 20:59:01.840,3.0,5.6999998093,332.0,-105.5,197.0,1963.5,0.0,-0.0304878056,-0.0304878056
2023-11-21 20:59:01.850,3.0,5.6999998093,332.0,-105.0,197.0,1964.0,-0.0609756112,0.0,-0.0609756112
2023-11-21 20:59:01.860,3.0,5.6999998093,332.0,-105.0,196.0,1964.0,0.0,0.0609756112,-0.0609756112
2023-11-21 20:59:01.870,3.0,5.6999998093,332.0,-105.0,196.0,1964.0,0.0,0.0609756112,-0.0609756112
2023-11-21 20:59:01.880,3.0,5.6999998093,332.0,-104.0,196.0,1963.0,0.0609756112,0.0,0.0
2023-11-21 20:59:01.890,3.0,5.6999998093,332.0,-102.0,195.0,1964.0,-0.0609756112,0.0,0.0
2023-11-21 20:59:01.900,3.0,5.6999998093,332.0,-104.0,195.0,1963.0,0.0,0.0609756112,0.0609756112
2023-11-21 20:59:01.910,3.0,5.6999998093,332.0,-104.0,195.0,1963.0,0.0,0.0609756112,0.0609756112
2023-11-21 20:59:01.920,3.0,5.6999998093,332.0,-105.0,196.0,1964.0,0.0609756112,0.0,-0.0609756112
2023-11-21 20:59:01.930,3.0,5.6999998093,332.0,-105.0,197.0,1964.0,0.0,0.0,0.0
2023-11-21 20:59:01.940,3.0,5.6999998093,332.0,-103.0,195.0,1964.0,-0.0609756112,0.0609756112,-0.0609756112
2023-11-21 20:59:01.950,3.0,5.6999998093,332.0,-103.0,195.0,1964.0,0.0,0.0304878056,-0.0304878056
2023-11-21 20:59:01.960,3.0,5.6999998093,332.0,-103.0,195.0,1964.0,0.0609756112,0.0,0.0
2023-11-21 20:59:01.970,3.0,5.6999998093,332.0,-104.0,196.0,1964.0,0.0,0.0,0.0
2023-11-21 20:59:01.980,3.0,5.6999998093,332.0,-104.0,197.0,1965.0,0.0609756112,0.0,0.0
2023-11-21 20:59:01.990,3.0,5.6999998093,332.0,-104.0,196.0,1964.8333333333335,0.0304878056,-0.020325203733333335,0.0
2023-11-21 20:59:02.000,3.0,5.6999998093,332.0,-104.0,195.0,1964.6666666666667,0.0,-0.04065040746666667,0.0
2023-11-21 20:59:02.010,3.0,5.6999998093,332.0,-104.0,196.0,1965.0,0.0,-0.0609756112,0.0
2023-11-21 20:59:02.020,3.0,5.6999998093,332.0,-104.5,196.5,1965.0,0.0304878056,-0.0304878056,-0.0304878056
2023-11-21 20:59:02.030,3.0,5.6999998093,332.0,-105.0,197.0,1965.0,0.0609756112,0.0,-0.0609756112
2023-11-21 20:59:02.040,3.0,5.6999998093,332.0,-105.0,195.0,1964.0,0.0,0.0,0.0609756112
2023-11-21 20:59:02.050,3.0,5.6999998093,332.0,-103.0,196.0,1966.0,-0.0609756112,-0.0609756112,0.0
2023-11-21 20:59:02.060,3.0,5.6999998093,332.0,-103.0,195.5,1965.5,-0.0304878056,-0.0304878056,0.0
2023-11-21 20:59:02.070,3.0,5.6999998093,332.0,-103.0,195.0,1965.0,0.0,0.0,0.0
2023-11-21 20:59:02.080,3.0,5.6999998093,332.0,-104.0,197.0,1964.0,0.0609756112,0.0609756112,-0.0609756112
2023-11-21 20:59:02.090,3.0,5.6999998093,332.0,-104.0,197.0,1964.0,0.0609756112,0.0,0.0
2023-11-21 20:59:02.100,3.0,5.6999998093,332.0,-105.0,199.0,1965.0,-0.0609756112,0.0,-0.0609756112
2023-11-21 20:59:02.110,3.0,5.6999998093,332.0,-105.0,199.0,1965.0,-0.0609756112,0.0,-0.0609756112
2023-11-21 20:59:02.120,3.0,5.6999998093,332.0,-104.0,196.0,1962.0,0.0,0.0,-0.0609756112
2023-11-21 20:59:02.130,3.0,5.6999998093,332.0,-103.0,197.0,1963.0,0.0,0.0,0.0609756112
2023-11-21 20:59:02.140,3.0,5.6999998093,332.0,-103.0,197.0,1963.0,0.0,0.0,0.0609756112
2023-11-21 20:59:02.150,3.0,5.6999998093,332.0,-104.0,198.0,1963.0,-0.0609756112,-0.1219512224,0.0
2023-11-21 20:59:02.160,3.0,5.6999998093,332.0,-104.0,196.0,1964.0,0.0,-0.0609756112,0.0
2023-11-21 20:59:02.170,3.0,5.6999998093,332.0,-103.5,195.5,1963.5,0.0,0.0,0.0304878056
2023-11-21 20:59:02.180,3.0,5.6999998093,332.0,-103.0,195.0,1963.0,0.0,0.0609756112,0.0609756112
2023-11-21 20:59:02.190,3.0,5.6999998093,332.0,-104.0,196.0,1964.0,0.0,0.0,0.0609756112
2023-11-21 20:59:02.200,3.0,5.6999998093,332.0,-105.0,198.0,1963.0,0.0,0.0,0.0
2023-11-21 20:59:02.210,3.0,5.6999998093,332.0,-105.5,197.5,1962.5,0.0,0.0304878056,0.0304878056
2023-11-21 20:59:02.220,3.0,5.6999998093,332.0,-106.0,197.0,1962.0,0.0,0.0609756112,0.0609756112
2023-11-21 20:59:02.230,3.0,5.6999998093,332.0,-105.0,196.0,1963.0,-0.0609756112,0.0,0.0
2023-11-21 20:59:02.240,3.0,5.6999998093,332.0,-104.0,196.0,1964.0,0.0609756112,0.0,0.0
2023-11-21 20:59:02.250,3.0,5.6999998093,332.0,-104.0,195.0,1964.0,0.0609756112,0.0,0.0609756112
2023-11-21 20:59:02.260,3.0,5.6999998093,332.0,-104.0,195.0,1964.0,0.0609756112,0.0,0.0609756112
2023-11-21 20:59:02.270,3.0,5.6999998093,332.0,-105.0,198.0,1964.0,-0.0609756112,-0.0609756112,0.0
2023-11-21 20:59:02.280,3.0,5.6999998093,332.0,-105.0,198.0,1964.0,-0.0609756112,-0.0609756112,0.0
2023-11-21 20:59:02.290,3.0,5.6999998093,332.0,-102.0,196.0,1966.0,0.0609756112,0.0,0.0609756112
2023-11-21 20:59:02.300,3.0,5.6999998093,332.0,-105.0,197.0,1966.0,0.0609756112,0.0,0.0
2023-11-21 20:59:02.310,3.0,5.6999998093,332.0,-105.0,198.0,1966.0,0.0609756112,0.0,0.0609756112
2023-11-21 20:59:02.320,3.0,5.6999998093,332.0,-105.0,197.0,1965.0,0.0,-0.0304878056,0.0304878056
2023-11-21 20:59:02.330,3.0,5.6999998093,332.0,-105.0,196.5,1964.0,0.0,-0.0609756112,-0.0304878056
2023-11-21 20:59:02.340,3.0,5.6999998093,332.0,-105.0,197.0,1964.0,0.0609756112,-0.0609756112,-0.0609756112
2023-11-21 20:59:02.350,3.0,5.6999998093,332.0,-103.0,195.0,1965.0,0.0609756112,0.0,0.0
2023-11-21 20:59:02.360,3.0,5.6999998093,332.0,-103.0,196.0,1966.0,0.0609756112,0.0,0.0609756112
2023-11-21 20:59:02.370,3.0,5.6999998093,332.0,-104.0,196.5,1965.5,0.0304878056,0.0,0.0304878056
2023-11-21 20:59:02.380,3.0,5.6999998093,332.0,-105.0,197.0,1965.0,0.0,0.0,0.0
2023-11-21 20:59:02.390,3.0,5.6999998093,332.0,-104.0,196.0,1966.0,0.0609756112,0.0609756112,0.0609756112
2023-11-21 20:59:02.400,3.0,5.6999998093,332.0,-103.5,195.5,1966.0,0.0304878056,0.0,0.0304878056
2023-11-21 20:59:02.410,3.0,5.6999998093,332.0,-103.0,195.0,1966.0,0.0,-0.0609756112,0.0
2023-11-21 20:59:02.420,3.0,5.6999998093,332.0,-104.0,196.0,1967.0,0.0,0.0,0.0
2023-11-21 20:59:02.430,3.0,5.6999998093,332.0,-104.0,196.0,1967.0,0.0,0.0,0.0
2023-11-21 20:59:02.440,3.0,5.6999998093,332.0,-103.0,196.0,1966.0,-0.0609756112,0.0,0.0
2023-11-21 20:59:02.450,3.0,5.6999998093,332.0,-104.0,195.0,1966.0,-0.0609756112,0.0,0.0609756112
2023-11-21 20:59:02.460,3.0,5.6999998093,332.0,-105.0,195.0,1967.0,0.0609756112,0.0,0.0
2023-11-21 20:59:02.470,3.0,5.6999998093,332.0,-105.0,195.5,1967.0,0.0304878056,0.0,-0.0304878056
2023-11-21 20:59:02.480,3.0,5.6999998093,332.0,-105.0,196.0,1967.0,0.0,0.0,-0.0609756112
2023-11-21 20:59:02.490,3.0,5.6999998093,332.0,-104.0,196.0,1967.0,0.1219512224,0.0,0.0
2023-11-21 20:59:02.500,3.0,5.6999998093,332.0,-104.0,195.0,1968.0,0.0609756112,0.0,0.0
2023-11-21 20:59:02.510,3.0,5.6999998093,332.0,-105.0,196.0,1968.0,0.1219512224,0.0,-0.0609756112
2023-11-21 20:59:02.520,3.0,5.6999998093,332.0,-105.0,196.0,1968.0,0.1219512224,0.0,-0.0609756112
2023-11-21 20:59:02.530,3.0,5.6999998093,332.0,-105.0,196.0,1967.5,0.0609756112,-0.0304878056,-0.0304878056
2023-11-21 20:59:02.540,3.0,5.6999998093,332.0,-105.0,196.0,1967.0,0.0,-0.0609756112,0.0
2023-11-21 20:59:02.550,3.0,5.6999998093,332.0,-103.0,195.0,1968.0,0.0,-0.0609756112,0.0
2023-11-21 20:59:02.560,3.0,5.6999998093,332.0,-104.0,198.0,1966.0,-0.0609756112,-0.0609756112,0.0
2023-11-21 20:59:02.570,3.0,5.6999998093,332.0,-105.0,198.0,1965.0,-0.0609756112,0.0,-0.0609756112
2023-11-21 20:59:02.580,3.0,5.6999998093,332.0,-105.0,198.0,1965.0,-0.0609756112,0.0,-0.0609756112
2023-11-21 20:59:02.590,3.0,5.6999998093,332.0,-105.0,197.0,1965.0,0.0,0.0,0.0
2023-11-21 20:59:02.600,3.0,5.6999998093,332.0,-105.0,198.0,1966.0,0.0,-0.0609756112,-0.0609756112
2023-11-21 20:59:02.610,3.0,5.6999998093,332.0,-105.0,198.0,1965.0,0.0609756112,0.0609756112,-0.0609756112
2023-11-21 20:59:02.620,3.0,5.6999998093,332.0,-105.0,198.0,1965.0,0.0609756112,0.0609756112,-0.0609756112
2023-11-21 20:59:02.630,3.0,5.6999998093,332.0,-104.0,196.0,1964.0,0.0,-0.1219512224,0.0
2023-11-21 20:59:02.640,3.0,5.6999998093,332.0,-104.0,199.0,1964.0,0.0,-0.0609756112,0.0609756112
2023-11-21 20:59:02.650,3.0,5.6999998093,332.0,-104.0,196.0,1963.0,0.1219512224,0.0,0.0
2023-11-21 20:59:02.660,3.0,5.6999998093,332.0,-103.0,194.0,1963.0,0.0609756112,0.0,0.0
2023-11-21 20:59:02.670,3.0,5.6999998093,332.0,-104.0,196.0,1966.0,0.0609756112,0.0,0.0609756112
2023-11-21 20:59:02.680,3.0,5.6999998093,332.0,-104.0,196.0,1965.0,0.0,0.0,0.0
2023-11-21 20:59:02.690,3.0,5.6999998093,332.0,-104.0,196.0,1965.0,0.0,0.0,0.0
2023-11-21 20:59:02.700,3.0,5.6999998093,332.0,-102.0,196.0,1964.0,-0.0609756112,0.0,0.0
2023-11-21 20:59:02.710,3.0,5.6999998093,332.0,-105.0,196.0,1965.0,-0.0609756112,0.0,0.0
2023-11-21 20:59:02.720,3.0,5.6999998093,332.0,-103.0,196.0,1965.0,0.0609756112,0.0,0.0
2023-11-21 20:59:02.730,3.0,5.6999998093,332.0,-103.5,196.0,1965.0,0.0304878056,0.0304878056,-0.0304878056
2023-11-21 20:59:02.740,3.0,5.6999998093,332.0,-104.0,196.0,1965.0,0.0,0.0609756112,-0.0609756112
2023-11-21 20:59:02.750,3.0,5.6999998093,332.0,-104.0,194.0,1965.0,0.0609756112,0.0,-0.0609756112
2023-11-21 20:59:02.760,3.0,5.6999998093,332.0,-105.0,197.0,1964.0,0.0,-0.0609756112,0.0
2023-11-21 20:59:02.770,3.0,5.6999998093,332.0,-105.0,197.0,1964.5,0.0609756112,-0.0609756112,0.0
2023-11-21 20:59:02.780,3.0,5.6999998093,332.0,-105.0,197.0,1965.0,0.1219512224,-0.0609756112,0.0
2023-11-21 20:59:02.790,3.0,5.6999998093,332.0,-105.0,197.0,1965.0,0.1219512224,-0.0609756112,0.0
2023-11-21 20:59:02.800,3.0,5.6999998093,332.0,-105.0,198.0,1964.0,0.0,0.0,0.0
2023-11-21 20:59:02.810,3.0,5.6999998093,332.0,-103.0,196.0,1964.0,0.0,0.0609756112,-0.0609756112
2023-11-21 20:59:02.820,3.0,5.6999998093,332.0,-103.5,196.5,1964.0,0.0,0.0304878056,-0.0609756112
2023-11-21 20:59:02.830,3.0,5.6999998093,332.0,-104.0,197.0,1964.0,0.0,0.0,-0.0609756112
2023-11-21 20:59:02.840,3.0,5.6999998093,332.0,-103.0,196.0,1963.0,0.0609756112,0.0,0.0
2023-11-21 20:59:02.850,3.0,5.6999998093,332.0,-104.0,196.0,1963.0,0.0609756112,0.0,0.0
2023-11-21 20:59:02.860,3.0,5.6999998093,332.0,-104.0,196.5,1964.0,0.0304878056,0.0,0.0304878056
2023-11-21 20:59:02.870,3.0,5.6999998093,332.0,-104.0,197.0,1965.0,0.0,0.0,0.0609756112
2023-11-21 20:59:02.880,3.0,5.6999998093,332.0,-105.0,196.0,1964.0,0.0,-0.1219512224,-0.0609756112
2023-11-21 20:59:02.890,3.0,5.6999998093,332.0,-103.0,196.0,1965.0,0.0,0.0,-0.0609756112
2023-11-21 20:59:02.900,3.0,5.6999998093,332.0,-103.0,196.0,1965.0,0.0,0.0,-0.0609756112
2023-11-21 20:59:02.910,3.0,5.6999998093,332.0,-103.0,196.0,1966.0,0.1219512224,0.0609756112,0.0609756112
2023-11-21 20:59:02.920,3.0,5.6999998093,332.0,-103.0,196.0,1966.0,0.1219512224,0.0609756112,0.0609756112
2023-11-21 20:59:02.930,3.0,5.6999998093,332.0,-105.0,197.0,1966.0,0.0,0.0,0.0
2023-11-21 20:59:02.940,3.0,5.6999998093,332.0,-105.0,196.0,1967.0,0.0,0.0,0.0609756112
2023-11-21 20:59:02.950,3.0,5.6999998093,332.0,-104.0,196.0,1966.0,0.0,0.0,0.0
2023-11-21 20:59:02.960,3.0,5.6999998093,332.0,-105.0,196.0,1966.0,-0.0304878056,0.0,0.0304878056
2023-11-21 20:59:02.970,3.0,5.6999998093,332.0,-106.0,196.0,1966.0,-0.0609756112,0.0,0.0609756112
2023-11-21 20:59:02.980,3.0,5.6999998093,332.0,-105.0,195.0,1965.0,0.0,0.0,0.0
2023-11-21 20:59:02.990,3.0,5.6999998093,332.0,-104.0,195.0,1966.0,0.0609756112,0.0,0.0
2023-11-21 20:59:03.000,3.0,5.6999998093,332.0,-104.0,195.66666666666666,1966.6666666666667,0.020325203733333335,-0.04065040746666667,0.0
2023-11-21 20:59:03.010,3.0,5.6999998093,332.0,-103.5,195.83333333333331,1966.3333333333335,0.04065040746666666,0.01016260186666667,-0.0304878056
2023-11-21 20:59:03.020,3.0,5.6999998093,332.0,-103.0,196.0,1966.0,0.0609756112,0.0609756112,-0.0609756112
2023-11-21 20:59:03.030,3.0,5.6999998093,332.0,-104.0,196.0,1967.0,0.0609756112,-0.0609756112,0.0
2023-11-21 20:59:03.040,3.0,5.6999998093,332.0,-104.0,196.0,1967.0,0.0609756112,-0.0609756112,0.0
2023-11-21 20:59:03.050,3.0,5.6999998093,332.0,-104.0,196.0,1966.0,0.0,0.0,0.0
2023-11-21 20:59:03.060,3.0,5.6999998093,332.0,-105.0,197.0,1966.0,0.0609756112,0.0,0.0609756112
2023-11-21 20:59:03.070,3.0,5.6999998093,332.0,-103.0,196.0,1968.0,0.0,0.0,-0.0609756112
2023-11-21 20:59:03.080,3.0,5.6999998093,332.0,-103.0,196.0,1967.0,-0.0304878056,0.0304878056,0.0
2023-11-21 20:59:03.090,3.0,5.6999998093,332.0,-103.0,196.0,1966.0,-0.0609756112,0.0609756112,0.0609756112
2023-11-21 20:59:03.100,3.0,5.6999998093,332.0,-104.0,195.0,1966.0,0.0,0.0,0.0
2023-11-21 20:59:03.110,3.0,5.6999998093,332.0,-104.0,195.0,1966.0,0.0609756112,-0.0609756112,-0.0609756112
2023-11-21 20:59:03.120,3.0,5.6999998093,332.0,-104.0,195.5,1965.0,-0.0304878056,-0.0304878056,-0.0609756112
2023-11-21 20:59:03.130,3.0,5.6999998093,332.0,-104.0,196.0,1964.0,-0.1219512224,0.0,-0.0609756112
2023-11-21 20:59:03.140,3.0,5.6999998093,332.0,-104.0,195.0,1965.0,0.0,-0.0609756112,-0.0609756112
2023-11-21 20:59:03.150,3.0,5.6999998093,332.0,-106.0,196.0,1964.0,0.0,0.0,0.0
2023-11-21 20:59:03.160,3.0,5.6999998093,332.0,-105.66666666666667,195.66666666666666,1963.3333333333333,0.0,-0.020325203733333335,0.0
2023-11-21 20:59:03.170,3.0,5.6999998093,332.0,-105.33333333333333,195.33333333333334,1962.6666666666667,0.0,-0.04065040746666667,0.0
2023-11-21 20:59:03.180,3.0,5.6999998093,332.0,-105.0,195.0,1962.0,0.0,-0.0609756112,0.0
2023-11-21 20:59:03.190,3.0,5.6999998093,332.0,-104.0,195.0,1963.0,0.0609756112,0.0,0.0
2023-11-21 20:59:03.200,3.0,5.6999998093,332.0,-104.0,196.33333333333334,1962.3333333333333,0.020325203733333335,0.0,0.04065040746666667
2023-11-21 20:59:03.210,3.0,5.6999998093,332.0,-104.0,196.66666666666669,1962.6666666666665,0.010162601866666668,0.0304878056,0.020325203733333335
2023-11-21 20:59:03.220,3.0,5.6999998093,332.0,-104.0,197.0,1963.0,0.0,0.0609756112,0.0
2023-11-21 20:59:03.230,3.0,5.6999998093,332.0,-103.0,197.0,1963.0,0.0609756112,0.0,-0.0609756112
2023-11-21 20:59:03.240,3.0,5.6999998093,332.0,-106.0,197.0,1963.0,0.0,0.0,-0.0609756112
2023-11-21 20:59:03.250,3.0,5.6999998093,332.0,-106.0,197.0,1963.0,0.0,0.0,-0.0609756112
2023-11-21 20:59:03.260,3.0,5.6999998093,332.0,-104.0,197.0,1964.0,0.0,0.0,0.0609756112
2023-11-21 20:59:03.270,3.0,5.6999998093,332.0,-105.0,196.0,1965.0,-0.0609756112,0.0,0.0609756112
2023-11-21 20:59:03.280,3.0,5.6999998093,332.0,-104.0,196.0,1965.5,-0.0304878056,0.0,0.0609756112
2023-11-21 20:59:03.290,3.0,5.6999998093,332.0,-103.0,196.0,1966.0,0.0,0.0,0.0609756112
2023-11-21 20:59:03.300,3.0,5.6999998093,332.0,-104.0,198.0,1965.0,0.1219512224,0.0,0.0
2023-11-21 20:59:03.310,3.0,5.6999998093,332.0,-104.0,197.0,1965.5,0.0914634168,0.0304878056,0.0
2023-11-21 20:59:03.320,3.0,5.6999998093,332.0,-104.0,196.0,1966.0,0.0609756112,0.0609756112,0.0
2023-11-21 20:59:03.330,3.0,5.6999998093,332.0,-103.0,196.0,1966.0,-0.0609756112,0.0,0.0609756112
2023-11-21 20:59:03.340,3.0,5.6999998093,332.0,-103.0,194.0,1965.0,-0.0609756112,0.0,0.0609756112
2023-11-21 20:59:03.350,3.0,5.6999998093,332.0,-103.0,194.0,1965.0,-0.0609756112,0.0,0.0609756112
2023-11-21 20:59:03.360,3.0,5.6999998093,332.0,-105.0,196.0,1964.0,0.0,0.0,0.0
2023-11-21 20:59:03.370,3.0,5.6999998093,332.0,-104.0,196.0,1963.0,-0.1219512224,-0.0609756112,0.0
2023-11-21 20:59:03.380,3.0,5.6999998093,332.0,-104.0,195.0,1963.0,-0.0609756112,0.0,0.0
2023-11-21 20:59:03.390,3.0,5.6999998093,332.0,-105.0,197.0,1962.0,-0.0609756112,0.0,-0.0609756112
2023-11-21 20:59:03.400,3.0,5.6999998093,332.0,-105.0,196.0,1962.0,0.0,-0.0609756112,-0.0609756112
2023-11-21 20:59:03.410,3.0,5.6999998093,332.0,-105.0,195.0,1962.0,0.0609756112,-0.1219512224,-0.0609756112
2023-11-21 20:59:03.420,3.0,5.6999998093,332.0,-105.0,196.5,1961.0,-0.0609756112,0.0,0.0304878056
2023-11-21 20:59:03.430,3.0,5.6999998093,332.0,-105.0,196.0,1961.0,0.0,0.0,0.0609756112
2023-11-21 20:59:03.440,3.0,5.6999998093,332.0,-106.0,198.0,1959.0,-0.0609756112,0.0,0.0
2023-11-21 20:59:03.450,3.0,5.6999998093,332.0,-104.0,197.0,1959.0,-0.0609756112,0.0609756112,0.0609756112
2023-11-21 20:59:03.460,3.0,5.6999998093,332.0,-104.5,196.5,1959.0,-0.0609756112,0.0304878056,0.0304878056
2023-11-21 20:59:03.470,3.0,5.6999998093,332.0,-105.0,196.0,1959.0,-0.0609756112,0.0,0.0
2023-11-21 20:59:03.480,3.0,5.6999998093,332.0,-104.0,196.0,1959.0,0.0,0.0,0.0
2023-11-21 20:59:03.490,3.0,5.6999998093,332.0,-105.0,196.0,1959.0,0.0609756112,0.0,0.0609756112
2023-11-21 20:59:03.500,3.0,5.6999998093,332.0,-105.0,198.0,1959.0,0.0,-0.0609756112,0.0609756112
2023-11-21 20:59:03.510,3.0,5.6999998093,332.0,-105.0,198.0,1959.0,0.0,-0.0609756112,0.0609756112
2023-11-21 20:59:03.520,3.0,5.6999998093,332.0,-105.0,197.0,1959.0,-0.0609756112,0.0,-0.0609756112
2023-11-21 20:59:03.530,3.0,5.6999998093,332.0,-104.0,195.0,1957.0,0.0,-0.0609756112,0.0
2023-11-21 20:59:03.540,3.0,5.6999998093,332.0,-104.0,195.0,1957.0,0.0,-0.0609756112,0.0
2023-11-21 20:59:03.550,3.0,5.6999998093,332.0,-104.0,196.0,1958.0,0.0609756112,-0.0609756112,-0.0609756112
2023-11-21 20:59:03.560,3.0,5.6999998093,332.0,-105.0,196.5,1958.0,0.0,0.0,0.0
2023-11-21 20:59:03.570,3.0,5.6999998093,332.0,-106.0,197.0,1958.0,-0.0609756112,0.0609756112,0.0609756112
2023-11-21 20:59:03.580,3.0,5.6999998093,332.0,-105.0,196.0,1957.0,0.0609756112,0.0,0.0
2023-11-21 20:59:03.590,3.0,5.6999998093,332.0,-104.0,197.0,1958.0,0.0,-0.0609756112,0.0609756112
2023-11-21 20:59:03.600,3.0,5.6999998093,332.0,-104.5,196.5,1958.0,0.0,-0.0609756112,0.0304878056
2023-11-21 20:59:03.610,3.0,5.6999998093,332.0,-105.0,196.0,1958.0,0.0,-0.0609756112,0.0
2023-11-21 20:59:03.620,3.0,5.6999998093,332.0,-104.0,196.0,1957.0,0.0609756112,-0.0609756112,0.0609756112
2023-11-21 20:59:03.630,3.0,5.6999998093,332.0,-105.0,196.0,1960.0,0.0609756112,0.0,0.0
2023-11-21 20:59:03.640,3.0,5.6999998093,332.0,-105.0,198.0,1960.0,-0.0609756112,-0.0609756112,0.0
2023-11-21 20:59:03.650,3.0,5.6999998093,332.0,-105.0,198.0,1960.0,-0.0609756112,-0.0609756112,0.0
2023-11-21 20:59:03.660,3.0,5.6999998093,332.0,-104.0,195.0,1960.0,0.0609756112,-0.1219512224,0.0
2023-11-21 20:59:03.670,3.0,5.6999998093,332.0,-106.0,198.0,1959.0,0.0,0.0,0.0
2023-11-21 20:59:03.680,3.0,5.6999998093,332.0,-106.0,198.0,1959.0,0.0,0.0,0.0
2023-11-21 20:59:03.690,3.0,5.6999998093,332.0,-105.0,196.0,1958.0,0.0,0.0,-0.1219512224
2023-11-21 20:59:03.700,3.0,5.6999998093,332.0,-104.0,194.0,1958.0,-0.0609756112,0.0609756112,-0.0609756112
2023-11-21 20:59:03.710,3.0,5.6999998093,332.0,-104.0,195.0,1957.0,0.1219512224,-0.0609756112,0.0
2023-11-21 20:59:03.720,3.0,5.6999998093,332.0,-104.0,195.0,1958.0,0.0304878056,-0.0609756112,0.0
2023-11-21 20:59:03.730,3.0,5.6999998093,332.0,-104.0,195.0,1959.0,-0.0609756112,-0.0609756112,0.0
2023-11-21 20:59:03.740,3.0,5.6999998093,332.0,-104.0,195.0,1960.0,0.0,-0.0609756112,0.0
2023-11-21 20:59:03.750,3.0,5.6999998093,332.0,-105.0,196.0,1961.0,0.0,0.0,-0.0609756112
2023-11-21 20:59:03.760,3.0,5.6999998093,332.0,-104.0,196.0,1961.0,-0.0609756112,0.0,0.0
2023-11-21 20:59:03.770,3.0,5.6999998093,332.0,-104.0,196.0,1961.0,-0.0609756112,0.0,0.0
2023-11-21 20:59:03.780,3.0,5.6999998093,332.0,-105.0,197.0,1962.0,-0.0609756112,0.0,0.0
2023-11-21 20:59:03.790,3.0,5.6999998093,332.0,-104.0,196.0,1962.0,0.0609756112,0.0,0.0609756112
2023-11-21 20:59:03.800,3.0,5.6999998093,332.0,-104.0,196.0,1962.0,-0.0609756112,0.0,0.0
2023-11-21 20:59:03.810,3.0,5.6999998093,332.0,-104.0,196.0,1962.0,-0.0609756112,0.0,0.0
2023-11-21 20:59:03.820,3.0,5.6999998093,332.0,-104.5,196.0,1961.0,-0.0304878056,0.0,0.0
2023-11-21 20:59:03.830,3.0,5.6999998093,332.0,-103.5,196.0,1961.0,-0.0304878056,-0.0304878056,-0.0304878056
2023-11-21 20:59:03.840,3.0,5.6999998093,332.0,-103.0,196.0,1961.0,0.0,-0.0609756112,-0.0609756112
2023-11-21 20:59:03.850,3.0,5.6999998093,332.0,-104.0,197.0,1962.0,0.1219512224,0.0609756112,0.0
2023-11-21 20:59:03.860,3.0,5.6999998093,332.0,-103.0,196.0,1962.0,0.0,-0.0609756112,0.0
2023-11-21 20:59:03.870,3.0,5.6999998093,332.0,-105.0,196.0,1963.0,0.0609756112,0.0,-0.0609756112
2023-11-21 20:59:03.880,3.0,5.6999998093,332.0,-105.0,196.0,1963.0,0.0609756112,0.0,-0.0609756112
2023-11-21 20:59:03.890,3.0,5.6999998093,332.0,-105.0,196.0,1963.0,0.0609756112,0.0,-0.1219512224
2023-11-21 20:59:03.900,3.0,5.6999998093,332.0,-106.0,198.0,1962.0,0.0,0.0,0.0
2023-11-21 20:59:03.910,3.0,5.6999998093,332.0,-105.0,196.0,1962.0,0.0609756112,0.0,0.0
2023-11-21 20:59:03.920,3.0,5.6999998093,332.0,-105.0,196.5,1962.5,0.0304878056,-0.0304878056,0.0
2023-11-21 20:59:03.930,3.0,5.6999998093,332.0,-105.0,197.0,1963.0,0.0,-0.0609756112,0.0
2023-11-21 20:59:03.940,3.0,5.6999998093,332.0,-104.0,194.0,1963.0,0.0609756112,0.0,-0.0609756112
2023-11-21 20:59:03.950,3.0,5.6999998093,332.0,-104.0,194.0,1963.0,0.0609756112,0.0,-0.0609756112
2023-11-21 20:59:03.960,3.0,5.6999998093,332.0,-104.0,196.0,1963.0,0.0609756112,-0.1219512224,0.0609756112
2023-11-21 20:59:03.970,3.0,5.6999998093,332.0,-105.0,197.0,1964.0,0.0609756112,0.0609756112,0.0
2023-11-21 20:59:03.980,3.0,5.6999998093,332.0,-104.0,196.0,1964.0,0.0609756112,0.0609756112,0.0
2023-11-21 20:59:03.990,3.0,5.6999998093,332.0,-104.0,196.0,1964.0,0.0609756112,0.0609756112,0.0
2023-11-21 20:59:04.000,3.0,5.6999998093,332.0,-105.0,196.0,1965.0,0.0609756112,0.0,-0.0609756112
2023-11-21 20:59:04.010,3.0,5.6999998093,332.0,-107.0,197.0,1964.0,0.0,0.0,0.0609756112
2023-11-21 20:59:04.020,3.0,5.6999998093,332.0,-106.0,196.0,1964.0,0.0609756112,0.0,0.0
2023-11-21 20:59:04.030,3.0,5.6999998093,333.0,-105.0,196.0,1964.5,0.0914634168,0.0304878056,0.0
2023-11-21 20:59:04.040,3.0,5.6999998093,333.0,-104.0,196.0,1965.0,0.1219512224,0.0609756112,0.0
2023-11-21 20:59:04.050,3.0,5.6999998093,332.5,-103.0,196.0,1965.0,0.0,0.0,-0.0609756112
2023-11-21 20:59:04.060,3.0,5.6999998093,332.0,-105.0,196.0,1964.0,0.0,0.0,0.0609756112
2023-11-21 20:59:04.070,3.0,5.6999998093,332.0,-103.0,195.0,1964.0,0.0,0.0,-0.0609756112
2023-11-21 20:59:04.080,3.0,5.6999998093,332.0,-104.0,195.0,1965.0,0.0,0.0,-0.0609756112
2023-11-21 20:59:04.090,3.0,5.6999998093,332.5,-104.0,195.0,1965.0,0.0,0.0609756112,0.0
2023-11-21 20:59:04.100,3.0,5.6999998093,332.75,-104.5,195.0,1964.5,0.0,0.0,0.0
2023-11-21 20:59:04.110,3.0,5.6999998093,333.0,-105.0,195.0,1964.0,0.0,-0.0609756112,0.0
2023-11-21 20:59:04.120,3.0,5.6999998093,333.0,-105.0,197.0,1965.0,0.0609756112,0.0,0.0609756112
2023-11-21 20:59:04.130,3.0,5.6999998093,333.0,-105.0,197.0,1965.0,0.0,0.0,0.0
2023-11-21 20:59:04.140,3.0,5.6999998093,333.0,-105.0,197.5,1964.5,0.0,0.0,0.0
2023-11-21 20:59:04.150,3.0,5.6999998093,333.0,-105.0,198.0,1964.0,0.0,0.0,0.0
2023-11-21 20:59:04.160,3.0,5.6999998093,333.0,-106.0,196.0,1965.0,0.0,0.0,0.0609756112
2023-11-21 20:59:04.170,3.0,5.6999998093,333.0,-106.0,196.0,1962.0,0.0609756112,0.0,0.0
2023-11-21 20:59:04.180,3.0,5.6999998093,333.0,-102.0,195.0,1963.0,0.0,-0.0609756112,0.0
2023-11-21 20:59:04.190,3.0,5.6999998093,333.0,-102.5,195.5,1963.5,0.0,0.0,-0.0304878056
2023-11-21 20:59:04.200,3.0,5.6999998093,332.0,-103.0,196.0,1964.0,0.0,0.0609756112,-0.0609756112
2023-11-21 20:59:04.210,3.0,5.6999998093,332.0,-105.0,198.0,1964.0,0.0,0.0,-0.0609756112
2023-11-21 20:59:04.220,3.0,5.6999998093,332.0,-105.5,197.0,1964.5,0.0,0.0,-0.0304878056
2023-11-21 20:59:04.230,3.0,5.6999998093,332.0,-106.0,196.0,1965.0,0.0,0.0,0.0
2023-11-21 20:59:04.240,3.0,5.6999998093,332.0,-104.0,195.0,1964.0,0.0609756112,-0.0609756112,-0.0609756112
2023-11-21 20:59:04.250,3.0,5.6999998093,332.0,-103.0,196.0,1964.0,0.0,0.0,0.0
2023-11-21 20:59:04.260,3.0,5.6999998093,332.0,-103.5,196.5,1964.0,-0.0304878056,0.0,0.0
2023-11-21 20:59:04.270,3.0,5.6999998093,332.0,-104.0,197.0,1964.0,-0.0609756112,0.0,0.0
2023-11-21 20:59:04.280,3.0,5.6999998093,332.0,-104.0,196.0,1964.0,0.0,0.0609756112,0.0
2023-11-21 20:59:04.290,3.0,5.6999998093,332.0,-103.0,196.0,1964.0,0.0609756112,0.0,0.0
2023-11-21 20:59:04.300,3.0,5.6999998093,332.0,-102.0,195.0,1964.0,0.0,0.0,-0.0609756112
2023-11-21 20:59:04.310,3.0,5.6999998093,332.0,-102.0,195.0,1964.0,0.0,0.0,-0.0609756112
2023-11-21 20:59:04.320,3.0,5.6999998093,332.0,-103.0,194.0,1965.0,0.0,0.0,0.0609756112
2023-11-21 20:59:04.330,3.0,5.6999998093,332.0,-104.0,196.0,1966.0,0.0,0.0609756112,0.0609756112
2023-11-21 20:59:04.340,3.0,5.6999998093,332.0,-104.0,196.0,1967.0,0.0609756112,-0.0609756112,0.0
2023-11-21 20:59:04.350,3.0,5.6999998093,332.0,-104.0,196.5,1967.5,0.0,-0.0304878056,-0.0304878056
2023-11-21 20:59:04.360,3.0,5.6999998093,332.0,-104.0,196.0,1968.0,0.0609756112,0.0609756112,-0.1219512224
2023-11-21 20:59:04.370,3.0,5.6999998093,332.0,-105.0,196.0,1968.0,-0.1219512224,0.0,0.0609756112
2023-11-21 20:59:04.380,3.0,5.6999998093,332.0,-105.0,196.0,1968.0,-0.1219512224,0.0,0.0609756112
2023-11-21 20:59:04.390,3.0,5.6999998093,332.0,-105.0,195.0,1968.0,0.0,-0.0609756112,0.0
2023-11-21 20:59:04.400,3.0,5.6999998093,332.0,-103.0,196.0,1968.0,0.0609756112,0.0,0.0609756112
2023-11-21 20:59:04.410,3.0,5.6999998093,332.0,-105.0,197.0,1968.0,0.0,0.0609756112,0.0
2023-11-21 20:59:04.420,3.0,5.6999998093,332.0,-104.5,195.5,1967.5,0.0609756112,0.0609756112,0.0
2023-11-21 20:59:04.430,3.0,5.6999998093,332.0,-104.0,194.0,1967.0,0.1219512224,0.0609756112,0.0
2023-11-21 20:59:04.440,3.0,5.6999998093,332.0,-105.0,197.0,1966.0,0.0609756112,-0.0609756112,0.0609756112
2023-11-21 20:59:04.450,3.0,5.6999998093,332.0,-106.0,197.0,1967.0,-0.0609756112,0.0609756112,0.0
2023-11-21 20:59:04.460,3.0,5.6999998093,333.0,-106.0,197.0,1967.0,-0.0609756112,0.0609756112,0.0
2023-11-21 20:59:04.470,3.0,5.6999998093,333.0,-105.0,197.0,1968.0,0.0609756112,0.0,-0.0609756112
2023-11-21 20:59:04.480,3.0,5.6999998093,333.0,-105.5,197.0,1967.5,0.0609756112,0.0,-0.0609756112
2023-11-21 20:59:04.490,3.0,5.6999998093,333.0,-106.0,197.0,1967.0,0.0609756112,0.0,-0.0609756112
2023-11-21 20:59:04.500,3.0,5.6999998093,333.0,-105.0,198.0,1966.0,-0.0609756112,0.0609756112,0.0
2023-11-21 20:59:04.510,3.0,5.6999998093,333.0,-106.0,197.0,1967.0,0.0,0.0,0.0609756112
2023-11-21 20:59:04.520,3.0,5.6999998093,333.0,-105.0,195.5,1966.0,0.0609756112,0.0,0.0304878056
2023-11-21 20:59:04.530,3.0,5.6999998093,333.0,-104.0,194.0,1965.0,0.1219512224,0.0,0.0
2023-11-21 20:59:04.540,3.0,5.6999998093,333.0,-105.0,194.0,1968.0,0.0,0.0,0.0
2023-11-21 20:59:04.550,3.0,5.6999998093,333.0,-103.0,193.0,1968.0,0.0,-0.0609756112,-0.0609756112
2023-11-21 20:59:04.560,3.0,5.6999998093,333.0,-103.0,196.0,1967.0,-0.0609756112,-0.0609756112,0.0609756112
2023-11-21 20:59:04.570,3.0,5.6999998093,333.0,-103.0,196.0,1967.0,-0.0609756112,-0.0609756112,0.0609756112
2023-11-21 20:59:04.580,3.0,5.6999998093,333.0,-105.0,198.0,1967.0,-0.0609756112,0.0609756112,0.0
2023-11-21 20:59:04.590,3.0,5.6999998093,333.0,-103.0,197.0,1967.0,-0.0609756112,0.0,-0.0609756112
2023-11-21 20:59:04.600,3.0,5.6999998093,333.0,-103.0,197.0,1966.0,0.0,0.0,-0.1219512224
2023-11-21 20:59:04.610,3.0,5.6999998093,333.0,-103.0,197.0,1966.0,0.0,0.0,-0.1219512224
2023-11-21 20:59:04.620,3.0,5.6999998093,333.0,-103.0,197.0,1966.0,0.0,0.0,0.0609756112
2023-11-21 20:59:04.630,3.0,5.6999998093,333.0,-105.0,196.0,1968.0,0.0609756112,0.0,0.0609756112
2023-11-21 20:59:04.640,3.0,5.6999998093,333.0,-104.5,195.0,1966.0,0.0914634168,-0.0304878056,0.0
2023-11-21 20:59:04.650,3.0,5.6999998093,333.0,-104.0,194.0,1964.0,0.1219512224,-0.0609756112,-0.0609756112
2023-11-21 20:59:04.660,3.0,5.6999998093,333.0,-104.0,195.0,1965.0,0.0,0.0,0.0
2023-11-21 20:59:04.670,3.0,5.6999998093,333.0,-104.0,197.0,1965.0,0.0,0.0609756112,-0.0609756112
2023-11-21 20:59:04.680,3.0,5.6999998093,333.0,-104.0,197.0,1964.5,0.0304878056,0.0304878056,-0.0304878056
2023-11-21 20:59:04.690,3.0,5.6999998093,333.0,-104.0,197.0,1964.0,0.0609756112,0.0,0.0
2023-11-21 20:59:04.700,3.0,5.6999998093,333.0,-105.0,197.0,1965.0,0.0609756112,0.0,-0.0609756112
2023-11-21 20:59:04.710,3.0,5.6999998093,333.0,-104.0,194.0,1965.0,0.0609756112,0.0609756112,-0.0609756112
2023-11-21 20:59:04.720,3.0,5.6999998093,333.0,-103.0,194.0,1965.0,0.0,0.0,-0.0609756112
2023-11-21 20:59:04.730,3.0,5.6999998093,333.0,-103.0,194.0,1965.0,0.0,0.0,-0.0609756112
2023-11-21 20:59:04.740,3.0,5.6999998093,333.0,-105.0,197.0,1965.0,0.0,0.0,0.0
2023-11-21 20:59:04.750,3.0,5.6999998093,333.0,-107.0,198.0,1965.0,-0.0609756112,0.0,0.0609756112
2023-11-21 20:59:04.760,3.0,5.6999998093,333.0,-107.0,198.0,1965.0,-0.0609756112,0.0,0.0609756112
2023-11-21 20:59:04.770,3.0,5.6999998093,333.0,-104.0,195.0,1965.0,0.0,0.0,-0.0609756112
2023-11-21 20:59:04.780,3.0,5.6999998093,333.0,-103.0,195.0,1966.0,0.0609756112,-0.0609756112,0.0
2023-11-21 20:59:04.790,3.0,5.6999998093,333.0,-103.0,195.0,1966.0,0.0,0.0609756112,0.0
2023-11-21 20:59:04.800,3.0,5.6999998093,333.0,-103.5,195.5,1966.5,0.0,0.0304878056,-0.0304878056
2023-11-21 20:59:04.810,3.0,5.6999998093,333.0,-104.0,196.0,1967.0,0.0,0.0,-0.0609756112
2023-11-21 20:59:04.820,3.0,5.6999998093,333.0,-103.0,194.0,1969.0,-0.0609756112,-0.0609756112,0.0
2023-11-21 20:59:04.830,3.0,5.6999998093,333.0,-104.0,195.0,1968.0,0.0609756112,0.0,0.0
2023-11-21 20:59:04.840,3.0,5.6999998093,333.0,-107.0,198.0,1970.0,0.0,0.0,0.0
2023-11-21 20:59:04.850,3.0,5.6999998093,333.0,-107.0,198.0,1970.0,0.0,0.0,0.0
2023-11-21 20:59:04.860,3.0,5.6999998093,333.0,-105.0,196.0,1968.0,0.1219512224,-0.0609756112,-0.0609756112
2023-11-21 20:59:04.870,3.0,5.6999998093,333.0,-103.0,195.0,1967.0,0.0,0.0,0.0
2023-11-21 20:59:04.880,3.0,5.6999998093,333.0,-103.0,195.0,1968.0,0.0,0.0,-0.0609756112
2023-11-21 20:59:04.890,3.0,5.6999998093,333.0,-103.0,195.0,1968.0,0.0,0.0,-0.0609756112
2023-11-21 20:59:04.900,3.0,5.6999998093,333.0,-106.0,198.0,1969.0,0.0,-0.0609756112,0.0609756112
2023-11-21 20:59:04.910,3.0,5.6999998093,333.0,-104.0,195.0,1971.0,-0.0609756112,0.0,0.0
2023-11-21 20:59:04.920,3.0,5.6999998093,333.0,-104.0,195.0,1971.0,-0.0609756112,0.0,0.0
2023-11-21 20:59:04.930,3.0,5.6999998093,333.0,-106.0,197.0,1971.0,0.0609756112,0.0,0.0609756112
2023-11-21 20:59:04.940,3.0,5.6999998093,333.0,-105.0,195.0,1970.0,0.0609756112,0.0609756112,-0.0609756112
2023-11-21 20:59:04.950,3.0,5.6999998093,333.0,-103.0,194.0,1971.0,0.0609756112,0.0,0.0609756112
2023-11-21 20:59:04.960,3.0,5.6999998093,333.0,-105.0,195.0,1971.0,0.0304878056,0.0,0.0304878056
2023-11-21 20:59:04.970,3.0,5.6999998093,333.0,-107.0,196.0,1971.0,0.0,0.0,0.0
2023-11-21 20:59:04.980,3.0,5.6999998093,333.0,-104.0,196.0,1970.0,0.0609756112,0.0,0.0609756112
2023-11-21 20:59:04.990,3.0,5.6999998093,333.0,-101.0,196.0,1969.0,0.0,0.0609756112,0.0
2023-11-21 20:59:05.000,3.0,5.6999998093,333.0,-101.5,196.0,1969.0,0.0,0.0,0.0
2023-11-21 20:59:05.010,3.0,5.6999998093,333.0,-102.0,196.0,1969.0,0.0,-0.0609756112,0.0
2023-11-21 20:59:05.020,3.0,5.6999998093,333.0,-106.0,196.0,1970.0,0.0,-0.0609756112,0.0
2023-11-21 20:59:05.030,3.0,5.6999998093,333.0,-104.0,194.0,1969.0,0.0609756112,0.0609756112,0.0609756112
2023-11-21 20:59:05.040,3.0,5.6999998093,333.0,-103.5,194.5,1969.0,0.0914634168,0.0304878056,0.0609756112
2023-11-21 20:59:05.050,3.0,5.6999998093,333.0,-103.0,195.0,1969.0,0.1219512224,0.0,0.0609756112
2023-11-21 20:59:05.060,3.0,5.6999998093,333.0,-104.0,197.0,1971.0,-0.0609756112,0.0,-0.0609756112
2023-11-21 20:59:05.070,3.0,5.6999998093,333.0,-104.0,196.0,1970.0,-0.0609756112,0.0,0.0
2023-11-21 20:59:05.080,3.0,5.6999998093,333.0,-104.0,196.0,1970.0,-0.0609756112,0.0,0.0
2023-11-21 20:59:05.090,3.0,5.6999998093,333.0,-105.0,195.0,1969.0,0.0,0.0,0.0
2023-11-21 20:59:05.100,3.0,5.6999998093,333.0,-103.0,196.0,1968.0,-0.0609756112,0.0609756112,0.0
2023-11-21 20:59:05.110,3.0,5.6999998093,333.0,-105.0,199.0,1967.0,-0.0609756112,0.0,0.0
2023-11-21 20:59:05.120,3.0,5.6999998093,333.0,-105.0,198.5,1968.0,0.0304878056,0.0,-0.0304878056
2023-11-21 20:59:05.130,3.0,5.6999998093,333.0,-105.0,198.0,1969.0,0.1219512224,0.0,-0.0609756112
2023-11-21 20:59:05.140,3.0,5.6999998093,333.0,-103.0,194.0,1969.0,0.0,0.0,0.0
2023-11-21 20:59:05.150,3.0,5.6999998093,333.0,-104.0,195.0,1967.0,0.0,0.0,0.0
2023-11-21 20:59:05.160,3.0,5.6999998093,333.0,-105.5,196.5,1968.0,0.0304878056,0.0304878056,0.0
2023-11-21 20:59:05.170,3.0,5.6999998093,333.0,-107.0,198.0,1969.0,0.0609756112,0.0609756112,0.0
2023-11-21 20:59:05.180,3.0,5.6999998093,333.0,-107.0,198.5,1969.0,0.0304878056,0.0,0.0
2023-11-21 20:59:05.190,3.0,5.6999998093,333.0,-107.0,199.0,1969.0,0.0,-0.0609756112,0.0
2023-11-21 20:59:05.200,3.0,5.6999998093,333.0,-104.0,195.0,1969.0,0.0609756112,0.0,0.0609756112
2023-11-21 20:59:05.210,3.0,5.6999998093,333.0,-106.0,196.0,1969.0,0.0609756112,0.0,0.1219512224
2023-11-21 20:59:05.220,3.0,5.6999998093,333.0,-105.0,196.0,1968.5,0.0609756112,0.0,0.0914634168
2023-11-21 20:59:05.230,3.0,5.6999998093,333.0,-104.0,196.0,1968.0,0.0609756112,0.0,0.0609756112
2023-11-21 20:59:05.240,3.0,5.6999998093,333.0,-106.0,198.0,1968.0,-0.0609756112,0.0,-0.0609756112
2023-11-21 20:59:05.250,3.0,5.6999998093,333.0,-106.0,195.0,1968.0,0.0609756112,-0.0609756112,0.0
2023-11-21 20:59:05.260,3.0,5.6999998093,333.0,-104.0,195.0,1966.0,0.0609756112,0.0,0.1219512224
2023-11-21 20:59:05.270,3.0,5.6999998093,333.0,-104.0,195.0,1966.0,0.0609756112,0.0,0.1219512224
2023-11-21 20:59:05.280,3.0,5.6999998093,333.0,-103.0,194.0,1967.0,0.0,0.0609756112,-0.0609756112
2023-11-21 20:59:05.290,3.0,5.6999998093,333.0,-105.0,197.0,1967.0,0.0,0.0,0.0609756112
2023-11-21 20:59:05.300,3.0,5.6999998093,333.0,-105.0,197.0,1967.0,0.0,0.0,0.0609756112
2023-11-21 20:59:05.310,3.0,5.6999998093,333.0,-105.0,197.0,1969.0,0.0609756112,0.0609756112,-0.0609756112
2023-11-21 20:59:05.320,3.0,5.6999998093,333.0,-104.0,194.0,1968.0,0.0,0.0,0.0
2023-11-21 20:59:05.330,3.0,5.6999998093,333.0,-103.0,195.0,1969.0,0.0609756112,0.0609756112,0.0609756112
2023-11-21 20:59:05.340,3.0,5.6999998093,333.0,-104.0,194.5,1969.5,0.0304878056,0.0609756112,0.0
2023-11-21 20:59:05.350,3.0,5.6999998093,333.0,-105.0,194.0,1970.0,0.0,0.0609756112,-0.0609756112
2023-11-21 20:59:05.360,3.0,5.6999998093,333.0,-104.0,194.0,1969.0,0.0,0.0,0.0609756112
2023-11-21 20:59:05.370,3.0,5.6999998093,333.0,-105.0,196.0,1968.0,-0.0609756112,0.0,-0.0609756112
2023-11-21 20:59:05.380,3.0,5.6999998093,333.0,-105.0,195.0,1969.0,0.0,0.0,0.0609756112
2023-11-21 20:59:05.390,3.0,5.6999998093,333.0,-105.0,195.0,1969.0,0.0,0.0,0.0609756112
2023-11-21 20:59:05.400,3.0,5.6999998093,333.0,-106.0,198.0,1970.0,0.0609756112,0.0,0.0
2023-11-21 20:59:05.410,3.0,5.6999998093,333.0,-104.0,196.0,1969.0,0.0,0.0,0.1219512224
2023-11-21 20:59:05.420,3.0,5.6999998093,333.0,-104.16666666666666,195.16666666666669,1969.0,0.0304878056,-0.0304878056,0.05081300933333334
2023-11-21 20:59:05.430,3.0,5.6999998093,333.0,-104.33333333333333,194.33333333333334,1969.0,0.0609756112,-0.0609756112,-0.020325203733333335
2023-11-21 20:59:05.440,3.0,5.6999998093,333.0,-103.0,194.0,1970.0,-0.1219512224,-0.0609756112,0.0
2023-11-21 20:59:05.450,3.0,5.6999998093,333.0,-103.0,194.0,1970.0,-0.1219512224,-0.0609756112,0.0
2023-11-21 20:59:05.460,3.0,5.6999998093,333.0,-103.0,195.0,1969.0,-0.0609756112,0.0,-0.0609756112
2023-11-21 20:59:05.470,3.0,5.6999998093,333.0,-105.0,195.0,1969.0,-0.0609756112,0.0609756112,0.0609756112
2023-11-21 20:59:05.480,3.0,5.6999998093,333.0,-105.0,197.0,1971.0,0.0,0.0,0.0
2023-11-21 20:59:05.490,3.0,5.6999998093,333.0,-104.5,196.5,1970.0,0.0304878056,0.0,0.0
2023-11-21 20:59:05.500,3.0,5.6999998093,333.0,-104.0,196.0,1969.0,0.0609756112,0.0,0.0
2023-11-21 20:59:05.510,3.0,5.6999998093,333.0,-105.0,197.0,1970.0,0.0609756112,0.0609756112,0.0
2023-11-21 20:59:05.520,3.0,5.6999998093,333.0,-105.0,197.0,1971.0,0.0609756112,0.0,0.0
2023-11-21 20:59:05.530,3.0,5.6999998093,333.0,-106.0,195.0,1969.0,-0.0609756112,0.0,0.0
2023-11-21 20:59:05.540,3.0,5.6999998093,333.0,-106.0,195.0,1969.0,-0.0609756112,0.0,0.0
2023-11-21 20:59:05.550,3.0,5.6999998093,333.0,-104.0,195.0,1967.0,0.0609756112,0.0,0.0
2023-11-21 20:59:05.560,3.0,5.6999998093,333.0,-103.5,195.5,1967.5,0.0609756112,-0.0304878056,-0.0304878056
2023-11-21 20:59:05.570,3.0,5.6999998093,333.0,-103.0,196.0,1968.0,0.0609756112,-0.0609756112,-0.0609756112
2023-11-21 20:59:05.580,3.0,5.6999998093,333.0,-106.0,195.0,1969.0,0.0,-0.0609756112,0.0609756112
2023-11-21 20:59:05.590,3.0,5.6999998093,333.0,-104.0,194.0,1967.0,-0.0609756112,0.0,0.0
2023-11-21 20:59:05.600,3.0,5.6999998093,333.0,-104.0,196.0,1967.0,0.0,-0.0304878056,-0.0304878056
2023-11-21 20:59:05.610,3.0,5.6999998093,333.0,-104.0,198.0,1967.0,0.0609756112,-0.0609756112,-0.0609756112
2023-11-21 20:59:05.620,3.0,5.6999998093,333.0,-104.0,196.0,1967.0,0.0,0.0,0.0
2023-11-21 20:59:05.630,3.0,5.6999998093,333.0,-107.0,198.0,1966.0,0.0609756112,0.0609756112,0.0
2023-11-21 20:59:05.640,3.0,5.6999998093,333.0,-103.0,196.0,1965.0,0.0,-0.0609756112,0.0
2023-11-21 20:59:05.650,3.0,5.6999998093,333.0,-103.0,196.0,1965.0,0.0,-0.0609756112,0.0
2023-11-21 20:59:05.660,3.0,5.6999998093,333.0,-104.0,194.0,1966.0,0.0609756112,-0.0609756112,0.0609756112
2023-11-21 20:59:05.670,3.0,5.6999998093,333.0,-105.0,198.0,1965.0,0.0,0.0,-0.0609756112
2023-11-21 20:59:05.680,3.0,5.6999998093,333.0,-105.0,197.0,1966.0,-0.0609756112,0.0609756112,-0.0609756112
2023-11-21 20:59:05.690,3.0,5.6999998093,333.0,-105.0,197.0,1966.0,-0.0609756112,0.0609756112,-0.0609756112
2023-11-21 20:59:05.700,3.0,5.6999998093,333.0,-103.0,196.0,1967.0,0.0609756112,0.0,0.0609756112
2023-11-21 20:59:05.710,3.0,5.6999998093,333.0,-105.0,197.0,1967.0,-0.0609756112,0.0,0.1219512224
2023-11-21 20:59:05.720,3.0,5.6999998093,333.0,-105.0,197.0,1967.0,-0.0609756112,0.0,0.1219512224
2023-11-21 20:59:05.730,3.0,5.6999998093,333.0,-106.0,196.0,1968.0,0.0,-0.0609756112,-0.0609756112
2023-11-21 20:59:05.740,3.0,5.6999998093,333.0,-104.0,195.0,1968.0,0.0,0.0,0.0
2023-11-21 20:59:05.750,3.0,5.6999998093,333.0,-105.0,197.0,1968.0,0.0,0.0,0.0
2023-11-21 20:59:05.760,3.0,5.6999998093,333.0,-105.0,197.0,1968.0,0.0,0.0,0.0
2023-11-21 20:59:05.770,3.0,5.6999998093,333.0,-104.0,196.0,1967.0,-0.0609756112,0.0,-0.0609756112
2023-11-21 20:59:05.780,3.0,5.6999998093,333.0,-104.0,197.0,1969.0,0.0,0.0609756112,0.0
2023-11-21 20:59:05.790,3.0,5.6999998093,333.0,-108.0,198.0,1970.0,0.0,0.0,0.0
2023-11-21 20:59:05.800,3.0,5.6999998093,333.0,-105.5,196.5,1969.0,0.0,0.0,0.0
2023-11-21 20:59:05.810,3.0,5.6999998093,333.0,-103.0,195.0,1968.0,0.0,0.0,0.0
2023-11-21 20:59:05.820,3.0,5.6999998093,333.0,-104.0,196.0,1969.0,-0.0609756112,0.0,0.0
2023-11-21 20:59:05.830,3.0,5.6999998093,333.0,-104.0,196.0,1969.0,-0.0609756112,0.0,0.0
2023-11-21 20:59:05.840,3.0,5.6999998093,333.0,-105.0,197.0,1969.0,0.0,-0.0609756112,0.1219512224
2023-11-21 20:59:05.850,3.0,5.6999998093,333.0,-106.0,198.0,1969.5,-0.0609756112,-0.0304878056,0.0609756112
2023-11-21 20:59:05.860,3.0,5.6999998093,333.0,-107.0,199.0,1970.0,-0.1219512224,0.0,0.0
2023-11-21 20:59:05.870,3.0,5.6999998093,333.0,-107.0,198.0,1970.0,0.0,0.0,0.0
2023-11-21 20:59:05.880,3.0,5.6999998093,333.0,-104.0,196.0,1972.0,0.0,0.0,0.0
2023-11-21 20:59:05.890,3.0,5.6999998093,333.0,-102.0,196.0,1973.0,0.0,0.0,-0.0609756112
2023-11-21 20:59:05.900,3.0,5.6999998093,333.0,-104.5,197.0,1972.5,-0.0304878056,0.0,-0.0304878056
2023-11-21 20:59:05.910,3.0,5.6999998093,333.0,-107.0,198.0,1972.0,-0.0609756112,0.0,0.0
2023-11-21 20:59:05.920,3.0,5.6999998093,333.0,-105.0,197.0,1971.0,0.0,0.0609756112,0.0
2023-11-21 20:59:05.930,3.0,5.6999998093,333.0,-103.0,196.0,1972.0,0.0609756112,0.0,0.1219512224
2023-11-21 20:59:05.940,3.0,5.6999998093,333.0,-104.5,196.0,1971.5,0.0914634168,0.0,0.0609756112
2023-11-21 20:59:05.950,3.0,5.6999998093,333.0,-106.0,196.0,1971.0,0.1219512224,0.0,0.0
2023-11-21 20:59:05.960,3.0,5.6999998093,333.0,-105.0,197.0,1972.0,0.0,-0.0609756112,0.0
2023-11-21 20:59:05.970,3.0,5.6999998093,333.0,-103.66666666666667,196.33333333333334,1972.0,0.08130081493333334,-0.0609756112,0.0
2023-11-21 20:59:05.980,3.0,5.6999998093,333.0,-103.83333333333334,196.16666666666669,1971.5,0.07113821306666668,-0.0304878056,0.0
2023-11-21 20:59:05.990,3.0,5.6999998093,333.0,-104.0,196.0,1971.0,0.0609756112,0.0,0.0
2023-11-21 20:59:06.000,3.0,5.6999998093,333.0,-104.0,197.0,1973.0,0.0,-0.0609756112,0.0
2023-11-21 20:59:06.010,3.0,5.6999998093,333.0,-105.0,196.0,1972.0,0.0609756112,0.0,0.0609756112
2023-11-21 20:59:06.020,3.0,5.6999998093,333.0,-105.0,196.0,1972.0,0.0609756112,0.0,0.0609756112
2023-11-21 20:59:06.030,3.0,5.6999998093,333.0,-105.0,197.0,1972.0,0.0609756112,0.0609756112,0.0
2023-11-21 20:59:06.040,3.0,5.6999998093,333.0,-104.0,194.0,1972.0,0.0,0.0,0.0
2023-11-21 20:59:06.050,3.0,5.6999998093,333.0,-105.0,198.0,1974.0,0.0,0.0,-0.0609756112
2023-11-21 20:59:06.060,3.0,5.6999998093,333.0,-104.0,197.0,1973.0,0.0,0.0,-0.0609756112
2023-11-21 20:59:06.070,3.0,5.6999998093,333.0,-104.0,197.0,1973.0,0.0,0.0,-0.0609756112
2023-11-21 20:59:06.080,3.0,5.6999998093,333.0,-105.0,195.0,1973.0,0.0,-0.0609756112,0.0
2023-11-21 20:59:06.090,3.0,5.6999998093,333.0,-105.0,197.0,1973.0,-0.0609756112,0.0,0.0
2023-11-21 20:59:06.100,3.0,5.6999998093,333.0,-104.0,196.0,1972.0,0.0609756112,0.0,0.0609756112
2023-11-21 20:59:06.110,3.0,5.6999998093,333.0,-105.0,199.0,1972.0,0.0,0.0,0.0
2023-11-21 20:59:06.120,3.0,5.6999998093,333.0,-105.0,196.0,1974.0,0.0,0.0,0.0
2023-11-21 20:59:06.130,3.0,5.6999998093,333.0,-104.5,196.16666666666669,1973.8333333333335,-0.010162601866666668,-0.010162601866666668,-0.0304878056
2023-11-21 20:59:06.140,3.0,5.6999998093,333.0,-104.0,196.33333333333334,1973.6666666666667,-0.020325203733333335,-0.020325203733333335,-0.0609756112
2023-11-21 20:59:06.150,3.0,5.6999998093,333.0,-104.0,197.0,1973.0,-0.0609756112,-0.0609756112,-0.0609756112
2023-11-21 20:59:06.160,3.0,5.6999998093,333.0,-104.0,196.0,1973.0,-0.0609756112,-0.0609756112,0.0
2023-11-21 20:59:06.170,3.0,5.6999998093,333.0,-105.0,198.0,1973.0,-0.0609756112,0.0,0.0609756112
2023-11-21 20:59:06.180,3.0,5.6999998093,333.0,-105.5,197.0,1973.0,-0.0304878056,0.0,0.0609756112
2023-11-21 20:59:06.190,3.0,5.6999998093,333.0,-106.0,196.0,1973.0,0.0,0.0,0.0609756112
2023-11-21 20:59:06.200,3.0,5.6999998093,333.0,-105.0,197.0,1974.0,0.0,0.0609756112,0.0
2023-11-21 20:59:06.210,3.0,5.6999998093,333.0,-104.0,196.0,1973.0,-0.0609756112,0.0609756112,0.0
2023-11-21 20:59:06.220,3.0,5.6999998093,333.0,-104.0,196.0,1973.0,-0.0609756112,0.0609756112,0.0
2023-11-21 20:59:06.230,3.0,5.6999998093,333.0,-105.0,197.0,1973.0,0.0,0.0,0.0
2023-11-21 20:59:06.240,3.0,5.6999998093,333.0,-106.0,198.0,1973.0,0.0609756112,-0.0609756112,0.0
2023-11-21 20:59:06.250,3.0,5.6999998093,333.0,-105.0,196.0,1972.0,0.0609756112,0.0,-0.0609756112
2023-11-21 20:59:06.260,3.0,5.6999998093,333.0,-104.0,195.0,1973.0,0.1219512224,0.0,0.0609756112
2023-11-21 20:59:06.270,3.0,5.6999998093,333.0,-104.0,196.0,1973.0,-0.0609756112,0.0,0.0
2023-11-21 20:59:06.280,3.0,5.6999998093,333.0,-104.0,196.0,1973.0,-0.0609756112,0.0,0.0
2023-11-21 20:59:06.290,3.0,5.6999998093,333.0,-103.0,195.0,1973.0,0.0,0.0,-0.0609756112
2023-11-21 20:59:06.300,3.0,5.6999998093,333.0,-104.0,196.0,1973.0,-0.0609756112,0.0609756112,0.0
2023-11-21 20:59:06.310,3.0,5.6999998093,333.0,-104.0,195.0,1974.0,-0.0304878056,0.0609756112,0.0
2023-11-21 20:59:06.320,3.0,5.6999998093,333.0,-104.0,194.0,1975.0,0.0,0.0609756112,0.0
2023-11-21 20:59:06.330,3.0,5.6999998093,333.0,-104.0,195.0,1974.0,0.0609756112,-0.0609756112,-0.0609756112
2023-11-21 20:59:06.340,3.0,5.6999998093,333.0,-104.0,196.0,1975.0,-0.0609756112,0.0609756112,0.0
2023-11-21 20:59:06.350,3.0,5.6999998093,333.0,-104.0,197.0,1976.0,0.0,0.0,0.0
2023-11-21 20:59:06.360,3.0,5.6999998093,333.0,-104.0,195.0,1975.0,-0.0609756112,0.0,0.0
2023-11-21 20:59:06.370,3.0,5.6999998093,333.0,-104.0,195.0,1974.0,-0.0609756112,0.0,0.0
2023-11-21 20:59:06.380,3.0,5.6999998093,333.0,-104.0,195.0,1974.0,-0.0609756112,0.0,0.0
2023-11-21 20:59:06.390,3.0,5.6999998093,333.0,-104.0,196.0,1973.0,0.0,0.0609756112,-0.1219512224
2023-11-21 20:59:06.400,3.0,5.6999998093,333.0,-105.0,195.0,1975.0,-0.0609756112,-0.0609756112,0.0609756112
2023-11-21 20:59:06.410,3.0,5.6999998093,333.0,-103.0,195.0,1976.0,0.0,0.0,-0.0609756112
2023-11-21 20:59:06.420,3.0,5.6999998093,333.0,-104.0,197.0,1974.0,-0.0609756112,0.0,0.0
2023-11-21 20:59:06.430,3.0,5.6999998093,333.0,-103.5,196.0,1974.5,-0.0304878056,0.0,0.0
2023-11-21 20:59:06.440,3.0,5.6999998093,333.0,-103.0,195.0,1975.0,0.0,0.0,0.0
2023-11-21 20:59:06.450,3.0,5.6999998093,333.0,-105.0,196.0,1974.0,0.0,-0.0609756112,0.0609756112
2023-11-21 20:59:06.460,3.0,5.6999998093,333.0,-106.0,198.0,1975.0,0.0609756112,0.1219512224,-0.0609756112
2023-11-21 20:59:06.470,3.0,5.6999998093,333.0,-106.0,198.0,1975.0,0.0609756112,0.1219512224,-0.0609756112
2023-11-21 20:59:06.480,3.0,5.6999998093,333.0,-103.0,195.0,1975.0,0.0,0.0,0.0
2023-11-21 20:59:06.490,3.0,5.6999998093,333.0,-104.0,195.5,1975.5,0.0,0.0,-0.0609756112
2023-11-21 20:59:06.500,3.0,5.6999998093,333.0,-105.0,196.0,1976.0,0.0,0.0,-0.1219512224
2023-11-21 20:59:06.510,3.0,5.6999998093,333.0,-105.0,196.0,1976.0,0.0,-0.0609756112,0.0
2023-11-21 20:59:06.520,3.0,5.6999998093,333.0,-102.0,196.0,1976.0,0.0,0.0,0.0
2023-11-21 20:59:06.530,3.0,5.6999998093,333.0,-104.0,196.0,1976.0,0.1219512224,0.0,0.0
2023-11-21 20:59:06.540,3.0,5.6999998093,333.0,-104.0,196.0,1976.0,0.1219512224,0.0,0.0
2023-11-21 20:59:06.550,3.0,5.6999998093,333.0,-105.0,197.0,1978.0,-0.0609756112,0.0609756112,0.0
2023-11-21 20:59:06.560,3.0,5.6999998093,333.0,-106.0,198.0,1976.0,0.0,0.0609756112,-0.1219512224
2023-11-21 20:59:06.570,3.0,5.6999998093,333.0,-103.0,197.0,1978.0,-0.0609756112,-0.0609756112,0.0609756112
2023-11-21 20:59:06.580,3.0,5.6999998093,333.0,-103.0,197.0,1978.0,-0.0609756112,-0.0609756112,0.0609756112
2023-11-21 20:59:06.590,3.0,5.6999998093,333.0,-104.0,195.0,1976.0,0.0,0.0,0.0609756112
2023-11-21 20:59:06.600,3.0,5.6999998093,333.0,-105.0,199.0,1978.0,0.0609756112,-0.1219512224,0.0
2023-11-21 20:59:06.610,3.0,5.6999998093,333.0,-105.0,197.0,1977.0,-0.0609756112,0.0,-0.0609756112
2023-11-21 20:59:06.620,3.0,5.6999998093,333.0,-105.0,197.0,1977.0,-0.0609756112,0.0,-0.0609756112
2023-11-21 20:59:06.630,3.0,5.6999998093,333.0,-106.0,197.0,1976.0,0.0,0.0,-0.0609756112
2023-11-21 20:59:06.640,3.0,5.6999998093,333.0,-104.0,195.0,1978.0,0.0,0.0609756112,0.0
2023-11-21 20:59:06.650,3.0,5.6999998093,333.0,-104.5,196.0,1977.5,0.0,0.0304878056,0.0
2023-11-21 20:59:06.660,3.0,5.6999998093,333.0,-105.0,197.0,1977.0,0.0,0.0,0.0
2023-11-21 20:59:06.670,3.0,5.6999998093,333.0,-105.0,196.0,1978.0,-0.0609756112,0.0,0.0
2023-11-21 20:59:06.680,3.0,5.6999998093,333.0,-104.0,194.0,1977.0,-0.0609756112,0.0609756112,0.0
2023-11-21 20:59:06.690,3.0,5.6999998093,333.0,-103.0,194.5,1977.5,-0.0609756112,0.0,0.0
2023-11-21 20:59:06.700,3.0,5.6999998093,333.0,-102.0,195.0,1978.0,-0.0609756112,-0.0609756112,0.0
2023-11-21 20:59:06.710,3.0,5.6999998093,333.0,-103.0,197.0,1978.0,0.0609756112,0.0,0.0609756112
2023-11-21 20:59:06.720,3.0,5.6999998093,333.0,-106.0,198.0,1978.0,0.0,-0.0609756112,0.0
2023-11-21 20:59:06.730,3.0,5.6999998093,333.0,-104.0,197.0,1976.0,-0.0609756112,0.0609756112,0.0
2023-11-21 20:59:06.740,3.0,5.6999998093,333.0,-104.0,196.0,1975.0,-0.0609756112,0.0,-0.0609756112
2023-11-21 20:59:06.750,3.0,5.6999998093,333.0,-104.0,196.0,1975.0,-0.0609756112,0.0,-0.0609756112
2023-11-21 20:59:06.760,3.0,5.6999998093,333.0,-103.5,195.5,1975.5,0.0,-0.0304878056,-0.0609756112
2023-11-21 20:59:06.770,3.0,5.6999998093,333.0,-103.5,195.5,1975.0,-0.0609756112,-0.0304878056,-0.0304878056
2023-11-21 20:59:06.780,3.0,5.6999998093,333.0,-103.0,195.0,1975.0,-0.1219512224,-0.0609756112,0.0
2023-11-21 20:59:06.790,3.0,5.6999998093,333.0,-106.0,197.0,1974.0,-0.0609756112,0.0609756112,0.0609756112
2023-11-21 20:59:06.800,3.0,5.6999998093,333.0,-105.0,195.0,1975.0,0.0609756112,0.0609756112,0.0609756112
2023-11-21 20:59:06.810,3.0,5.6999998093,333.0,-104.0,196.0,1973.0,-0.0609756112,0.0,0.0609756112
2023-11-21 20:59:06.820,3.0,5.6999998093,333.0,-104.0,196.0,1973.0,-0.0609756112,0.0,0.0304878056
2023-11-21 20:59:06.830,3.0,5.6999998093,333.0,-104.0,196.0,1973.0,-0.0609756112,0.0,0.0
2023-11-21 20:59:06.840,3.0,5.6999998093,333.0,-105.0,197.0,1973.0,0.0,-0.0609756112,0.0
2023-11-21 20:59:06.850,3.0,5.6999998093,333.0,-103.0,194.0,1974.0,0.0609756112,0.0,0.0
2023-11-21 20:59:06.860,3.0,5.6999998093,333.0,-105.0,199.0,1974.0,0.0,0.0,0.0
2023-11-21 20:59:06.870,3.0,5.6999998093,333.0,-105.5,198.0,1974.0,-0.0304878056,0.0,0.0
2023-11-21 20:59:06.880,3.0,5.6999998093,333.0,-106.0,197.0,1974.0,-0.0609756112,0.0,0.0
2023-11-21 20:59:06.890,3.0,5.6999998093,333.0,-105.0,197.0,1974.0,0.0609756112,0.0,0.0
2023-11-21 20:59:06.900,3.0,5.6999998093,333.0,-105.0,196.0,1974.0,0.0304878056,0.0,0.0304878056
2023-11-21 20:59:06.910,3.0,5.6999998093,333.0,-105.0,195.0,1974.0,0.0,0.0,0.0609756112
2023-11-21 20:59:06.920,3.0,5.6999998093,333.0,-106.0,195.0,1974.0,0.0,0.0609756112,0.0609756112
2023-11-21 20:59:06.930,3.0,5.6999998093,333.0,-105.0,194.0,1976.0,0.0609756112,0.0,0.0
2023-11-21 20:59:06.940,3.0,5.6999998093,333.0,-105.0,194.0,1976.0,0.0609756112,0.0,0.0
2023-11-21 20:59:06.950,3.0,5.6999998093,333.0,-105.0,196.0,1975.0,0.0,0.0,0.0
2023-11-21 20:59:06.960,3.0,5.6999998093,333.0,-103.0,197.0,1974.0,0.0,0.0,0.0609756112
2023-11-21 20:59:06.970,3.0,5.6999998093,333.0,-104.0,196.0,1974.0,0.0,0.0609756112,0.0
2023-11-21 20:59:06.980,3.0,5.6999998093,333.0,-105.0,197.0,1975.0,0.0609756112,0.0609756112,-0.0609756112
2023-11-21 20:59:06.990,3.0,5.6999998093,333.0,-103.66666666666667,196.33333333333334,1975.0,0.10162601866666666,0.020325203733333335,-0.020325203733333335
2023-11-21 20:59:07.000,3.0,5.6999998093,333.0,-103.83333333333334,196.66666666666669,1974.5,0.02032520373333334,-0.020325203733333335,-0.010162601866666668
2023-11-21 20:59:07.010,3.0,5.6999998093,333.0,-104.0,197.0,1974.0,-0.0609756112,-0.0609756112,0.0
2023-11-21 20:59:07.020,3.0,5.6999998093,333.0,-104.0,196.0,1975.0,0.0,0.0,0.0
2023-11-21 20:59:07.030,3.0,5.6999998093,333.0,-103.0,196.0,1974.0,0.0,-0.0609756112,0.0
2023-11-21 20:59:07.040,3.0,5.6999998093,333.0,-103.0,196.0,1974.0,0.0,-0.0609756112,0.0
2023-11-21 20:59:07.050,3.0,5.6999998093,333.0,-106.0,198.0,1975.0,0.0609756112,0.0609756112,-0.0609756112
2023-11-21 20:59:07.060,3.0,5.6999998093,333.0,-106.0,197.0,1975.0,0.0609756112,-0.0609756112,0.0
2023-11-21 20:59:07.070,3.0,5.6999998093,333.0,-106.0,197.0,1975.0,0.0609756112,-0.0609756112,0.0
2023-11-21 20:59:07.080,3.0,5.6999998093,333.0,-106.0,196.0,1974.0,0.0609756112,-0.0609756112,0.0609756112
2023-11-21 20:59:07.090,3.0,5.6999998093,333.0,-106.0,196.0,1976.0,0.0,-0.0609756112,0.0609756112
2023-11-21 20:59:07.100,3.0,5.6999998093,333.0,-105.0,195.0,1976.0,-0.0609756112,0.0609756112,0.0
2023-11-21 20:59:07.110,3.0,5.6999998093,333.0,-105.0,196.0,1976.0,0.0,0.0609756112,0.0609756112
2023-11-21 20:59:07.120,3.0,5.6999998093,333.0,-105.0,196.0,1976.0,0.0,0.0609756112,0.0609756112
2023-11-21 20:59:07.130,3.0,5.6999998093,333.0,-104.0,197.0,1978.0,0.0609756112,0.0,0.0609756112
2023-11-21 20:59:07.140,3.0,5.6999998093,333.0,-103.0,196.0,1977.0,0.0,-0.0609756112,0.0609756112
2023-11-21 20:59:07.150,3.0,5.6999998093,333.0,-104.0,198.0,1976.0,0.0609756112,0.0609756112,0.0609756112
2023-11-21 20:59:07.160,3.0,5.6999998093,333.0,-104.5,197.0,1976.0,0.0,0.0,0.0304878056
2023-11-21 20:59:07.170,3.0,5.6999998093,333.0,-105.0,196.0,1976.0,-0.0609756112,-0.0609756112,0.0
2023-11-21 20:59:07.180,3.0,5.6999998093,333.0,-104.0,197.0,1976.0,0.0,0.0,0.0
2023-11-21 20:59:07.190,3.0,5.6999998093,333.0,-104.5,197.5,1976.0,0.0,0.0,-0.0304878056
2023-11-21 20:59:07.200,3.0,5.6999998093,333.0,-105.0,198.0,1976.0,0.0,0.0,-0.0609756112
2023-11-21 20:59:07.210,3.0,5.6999998093,333.0,-104.0,196.0,1977.0,0.0609756112,0.0609756112,0.0609756112
2023-11-21 20:59:07.220,3.0,5.6999998093,333.0,-102.0,195.0,1976.0,-0.0609756112,0.0,0.0
2023-11-21 20:59:07.230,3.0,5.6999998093,333.0,-102.0,195.0,1976.0,-0.0609756112,0.0,0.0
2023-11-21 20:59:07.240,3.0,5.6999998093,333.0,-104.0,196.0,1977.0,0.0,-0.0609756112,-0.0609756112
2023-11-21 20:59:07.250,3.0,5.6999998093,333.0,-105.0,196.0,1976.0,-0.0609756112,0.0609756112,-0.0609756112
2023-11-21 20:59:07.260,3.0,5.6999998093,333.0,-104.0,196.0,1977.0,0.0,0.0,0.0
2023-11-21 20:59:07.270,3.0,5.6999998093,333.0,-104.0,193.0,1977.0,0.0,0.0,-0.0609756112
2023-11-21 20:59:07.280,3.0,5.6999998093,333.0,-104.0,194.0,1977.0,0.0,-0.0609756112,0.0
2023-11-21 20:59:07.290,3.0,5.6999998093,333.0,-104.0,194.0,1977.0,0.0,-0.0609756112,0.0
2023-11-21 20:59:07.300,3.0,5.6999998093,333.0,-105.0,195.0,1977.0,0.0,0.0,0.0609756112
2023-11-21 20:59:07.310,3.0,5.6999998093,333.0,-103.0,194.0,1977.0,-0.0609756112,-0.0609756112,0.0
2023-11-21 20:59:07.320,3.0,5.6999998093,333.0,-103.5,195.5,1978.0,-0.0609756112,-0.0304878056,0.0304878056
2023-11-21 20:59:07.330,3.0,5.6999998093,333.0,-104.0,197.0,1979.0,-0.0609756112,0.0,0.0609756112
2023-11-21 20:59:07.340,3.0,5.6999998093,333.0,-104.5,197.5,1977.5,-0.0304878056,-0.0304878056,0.0304878056
2023-11-21 20:59:07.350,3.0,5.6999998093,333.0,-105.0,198.0,1976.0,0.0,-0.0609756112,0.0
2023-11-21 20:59:07.360,3.0,5.6999998093,333.0,-104.0,197.0,1977.0,0.1219512224,0.0,0.0
2023-11-21 20:59:07.370,3.0,5.6999998093,333.0,-105.0,197.0,1977.0,-0.0609756112,0.0609756112,0.0
2023-11-21 20:59:07.380,3.0,5.6999998093,333.0,-103.5,196.5,1977.0,-0.0609756112,0.0304878056,0.0
2023-11-21 20:59:07.390,3.0,5.6999998093,333.0,-102.0,196.0,1977.0,-0.0609756112,0.0,0.0
2023-11-21 20:59:07.400,3.0,5.6999998093,333.0,-105.0,198.0,1977.0,0.0,-0.0609756112,0.0
2023-11-21 20:59:07.410,3.0,5.6999998093,333.0,-103.0,196.0,1978.0,0.1219512224,0.0609756112,0.0
2023-11-21 20:59:07.420,3.0,5.6999998093,333.0,-106.0,196.0,1978.0,0.0,0.0609756112,-0.0609756112
2023-11-21 20:59:07.430,3.0,5.6999998093,333.0,-104.5,195.5,1978.0,0.0,0.0,-0.0304878056
2023-11-21 20:59:07.440,3.0,5.6999998093,333.0,-103.0,195.0,1977.5,-0.0304878056,-0.0609756112,0.0609756112
2023-11-21 20:59:07.450,3.0,5.6999998093,333.0,-104.0,196.5,1977.25,-0.0152439028,-0.0609756112,0.0609756112
2023-11-21 20:59:07.460,3.0,5.6999998093,333.0,-105.0,198.0,1977.0,0.0,-0.0609756112,0.0609756112
2023-11-21 20:59:07.470,3.0,5.6999998093,333.0,-103.0,195.0,1977.0,0.0,-0.0609756112,0.0
2023-11-21 20:59:07.480,3.0,5.6999998093,333.0,-104.0,197.0,1977.0,-0.0609756112,0.0,0.0
2023-11-21 20:59:07.490,3.0,5.6999998093,333.0,-104.0,196.5,1977.5,-0.0609756112,0.0304878056,0.0
2023-11-21 20:59:07.500,3.0,5.6999998093,333.0,-104.0,196.0,1978.0,-0.0609756112,0.0609756112,0.0
2023-11-21 20:59:07.510,3.0,5.6999998093,333.0,-104.0,195.0,1976.0,0.0,0.0,0.0
2023-11-21 20:59:07.520,3.0,5.6999998093,333.0,-106.0,198.0,1977.0,-0.1219512224,0.0609756112,-0.0609756112
2023-11-21 20:59:07.530,3.0,5.6999998093,333.0,-105.5,196.5,1976.5,-0.0914634168,0.0,-0.0304878056
2023-11-21 20:59:07.540,3.0,5.6999998093,333.0,-105.0,195.0,1976.0,-0.0609756112,-0.0609756112,0.0
2023-11-21 20:59:07.550,3.0,5.6999998093,333.0,-102.0,196.0,1976.0,0.0,0.0,0.0609756112
2023-11-21 20:59:07.560,3.0,5.6999998093,333.0,-103.0,195.0,1976.0,0.0,0.0,0.0
2023-11-21 20:59:07.570,3.0,5.6999998093,333.0,-105.0,198.0,1977.0,-0.0609756112,0.0,-0.0609756112
2023-11-21 20:59:07.580,3.0,5.6999998093,333.0,-105.0,197.0,1976.5,-0.0304878056,-0.0304878056,0.0
2023-11-21 20:59:07.590,3.0,5.6999998093,333.0,-105.0,196.0,1976.0,0.0,-0.0609756112,0.0609756112
2023-11-21 20:59:07.600,3.0,5.6999998093,333.0,-104.0,195.0,1977.0,0.0609756112,0.0,0.0
2023-11-21 20:59:07.610,3.0,5.6999998093,333.0,-104.0,195.0,1977.0,0.0609756112,0.0,0.0
2023-11-21 20:59:07.620,3.0,5.6999998093,333.0,-104.0,196.0,1976.0,-0.0609756112,0.0609756112,0.0609756112
2023-11-21 20:59:07.630,3.0,5.6999998093,333.0,-105.0,196.0,1977.0,-0.0609756112,0.0609756112,0.0
2023-11-21 20:59:07.640,3.0,5.6999998093,333.0,-106.0,196.0,1976.0,-0.0609756112,-0.0609756112,0.0609756112
2023-11-21 20:59:07.650,3.0,5.6999998093,333.0,-105.5,196.5,1975.0,-0.0609756112,-0.0304878056,0.0304878056
2023-11-21 20:59:07.660,3.0,5.6999998093,333.0,-105.0,197.0,1974.0,-0.0609756112,0.0,0.0
2023-11-21 20:59:07.670,3.0,5.6999998093,333.0,-103.0,194.0,1976.0,-0.0609756112,-0.0609756112,0.0
2023-11-21 20:59:07.680,3.0,5.6999998093,333.0,-105.0,196.0,1975.0,0.0,0.0,0.0609756112
2023-11-21 20:59:07.690,3.0,5.6999998093,333.0,-105.5,197.0,1975.5,0.0,0.0,0.0
2023-11-21 20:59:07.700,3.0,5.6999998093,333.0,-106.0,198.0,1976.0,0.0,0.0,-0.0609756112
2023-11-21 20:59:07.710,3.0,5.6999998093,333.0,-104.0,196.0,1977.0,0.0609756112,0.0,0.0609756112
2023-11-21 20:59:07.720,3.0,5.6999998093,333.0,-104.0,196.0,1977.0,0.0609756112,0.0,0.0609756112
2023-11-21 20:59:07.730,3.0,5.6999998093,333.0,-103.0,195.0,1977.0,0.0609756112,0.0609756112,0.0
2023-11-21 20:59:07.740,3.0,5.6999998093,333.0,-104.0,195.0,1977.0,0.0,0.0609756112,0.0
2023-11-21 20:59:07.750,3.0,5.6999998093,333.0,-106.0,196.0,1976.0,-0.0609756112,-0.1219512224,0.0
2023-11-21 20:59:07.760,3.0,5.6999998093,333.0,-106.0,196.0,1976.0,-0.0609756112,-0.1219512224,0.0
2023-11-21 20:59:07.770,3.0,5.6999998093,333.0,-105.0,196.0,1975.0,0.0,-0.0609756112,0.0
2023-11-21 20:59:07.780,3.0,5.6999998093,333.0,-106.0,197.0,1974.0,0.0609756112,0.0,0.0
2023-11-21 20:59:07.790,3.0,5.6999998093,333.0,-107.0,196.0,1975.0,0.0609756112,0.0,0.0
2023-11-21 20:59:07.800,3.0,5.6999998093,333.0,-106.0,195.5,1975.5,0.0609756112,0.0,0.0
2023-11-21 20:59:07.810,3.0,5.6999998093,333.0,-105.0,195.0,1976.0,0.0609756112,0.0,0.0
2023-11-21 20:59:07.820,3.0,5.6999998093,333.0,-105.0,197.0,1974.0,-0.0609756112,0.0609756112,-0.0609756112
2023-11-21 20:59:07.830,3.0,5.6999998093,333.0,-103.0,197.0,1975.0,-0.0609756112,0.0,-0.0609756112
2023-11-21 20:59:07.840,3.0,5.6999998093,333.0,-103.0,196.5,1975.5,-0.0304878056,0.0304878056,-0.0609756112
2023-11-21 20:59:07.850,3.0,5.6999998093,333.0,-103.0,196.0,1976.0,0.0,0.0609756112,-0.0609756112
2023-11-21 20:59:07.860,3.0,5.6999998093,333.0,-103.0,196.0,1976.0,0.0,0.0609756112,-0.0609756112
2023-11-21 20:59:07.870,3.0,5.6999998093,333.0,-104.0,197.0,1978.0,0.1829268336,-0.0609756112,0.0
2023-11-21 20:59:07.880,3.0,5.6999998093,333.0,-105.0,196.0,1977.0,-0.0609756112,0.0,0.0609756112
2023-11-21 20:59:07.890,3.0,5.6999998093,333.0,-103.0,195.0,1977.0,0.0609756112,0.0,0.0609756112
2023-11-21 20:59:07.900,3.0,5.6999998093,333.0,-103.0,195.0,1977.0,0.0609756112,0.0,0.0609756112
2023-11-21 20:59:07.910,3.0,5.6999998093,333.0,-105.0,196.0,1977.0,0.0609756112,-0.1219512224,0.0
2023-11-21 20:59:07.920,3.0,5.6999998093,333.0,-104.0,196.0,1977.0,0.0,0.0,0.0609756112
2023-11-21 20:59:07.930,3.0,5.6999998093,333.0,-104.0,197.0,1976.0,0.0,0.0,0.0
2023-11-21 20:59:07.940,3.0,5.6999998093,333.0,-105.0,196.0,1977.0,0.1219512224,0.0,0.0
2023-11-21 20:59:07.950,3.0,5.6999998093,333.0,-105.0,196.0,1977.0,0.1219512224,0.0,0.0
2023-11-21 20:59:07.960,3.0,5.6999998093,333.0,-104.0,196.0,1975.0,0.0,0.0,0.0609756112
2023-11-21 20:59:07.970,3.0,5.6999998093,333.0,-105.0,198.0,1977.0,0.0609756112,0.0,0.0
2023-11-21 20:59:07.980,3.0,5.6999998093,333.0,-105.0,196.0,1978.0,0.0,0.0,0.0609756112
2023-11-21 20:59:07.990,3.0,5.6999998093,333.0,-104.0,197.0,1977.0,0.0,0.0,-0.0609756112
2023-11-21 20:59:08.000,3.0,5.6999998093,333.0,-104.0,195.0,1977.0,0.0,0.0609756112,0.0609756112
2023-11-21 20:59:08.010,3.0,5.6999998093,333.0,-104.0,195.0,1977.0,0.0,0.0609756112,0.0609756112
2023-11-21 20:59:08.020,3.0,5.6999998093,333.0,-103.0,195.0,1977.0,0.0,0.0,0.0
2023-11-21 20:59:08.030,3.0,5.6999998093,333.0,-106.0,198.0,1978.0,0.1219512224,0.0,-0.0609756112
2023-11-21 20:59:08.040,3.0,5.6999998093,333.0,-105.0,197.0,1978.0,0.0,-0.0609756112,0.0
2023-11-21 20:59:08.050,3.0,5.6999998093,333.0,-105.0,196.5,1978.5,0.0,0.0,0.0304878056
2023-11-21 20:59:08.060,3.0,5.6999998093,333.0,-105.0,196.0,1979.0,0.0,0.0609756112,0.0609756112
2023-11-21 20:59:08.070,3.0,5.6999998093,333.0,-104.0,196.0,1977.0,0.0609756112,0.0,0.1219512224
2023-11-21 20:59:08.080,3.0,5.6999998093,333.0,-105.0,196.0,1978.0,-0.0609756112,0.0609756112,0.0
2023-11-21 20:59:08.090,3.0,5.6999998093,333.0,-104.0,196.0,1977.0,0.0,0.0609756112,0.0
2023-11-21 20:59:08.100,3.0,5.6999998093,333.0,-104.0,196.0,1977.0,0.0,0.0609756112,0.0
2023-11-21 20:59:08.110,3.0,5.6999998093,333.0,-104.0,196.0,1977.0,0.0609756112,0.0,-0.1219512224
2023-11-21 20:59:08.120,3.0,5.6999998093,333.0,-104.0,196.0,1977.0,0.0609756112,0.0,-0.1219512224
2023-11-21 20:59:08.130,3.0,5.6999998093,333.0,-104.0,196.0,1977.0,-0.0609756112,0.0,0.0
2023-11-21 20:59:08.140,3.0,5.6999998093,333.0,-105.0,197.0,1976.0,-0.0609756112,0.0,0.0
2023-11-21 20:59:08.150,3.0,5.6999998093,333.0,-105.0,196.0,1977.0,0.0,0.0,0.0
2023-11-21 20:59:08.160,3.0,5.6999998093,333.0,-105.0,196.0,1977.0,0.0,0.0,0.0
2023-11-21 20:59:08.170,3.0,5.6999998093,333.0,-105.0,196.0,1978.0,0.0,0.0,0.0
2023-11-21 20:59:08.180,3.0,5.6999998093,333.0,-107.0,198.0,1977.0,0.0,0.0,0.0
2023-11-21 20:59:08.190,3.0,5.6999998093,333.0,-106.0,197.0,1977.5,0.0,0.0,0.0
2023-11-21 20:59:08.200,3.0,5.6999998093,333.0,-105.0,196.0,1978.0,0.0,0.0,0.0
2023-11-21 20:59:08.210,3.0,5.6999998093,333.0,-106.0,196.0,1977.0,0.0,0.0,0.0609756112
2023-11-21 20:59:08.220,3.0,5.6999998093,333.0,-104.0,197.0,1977.0,0.0,0.0,0.0609756112
2023-11-21 20:59:08.230,3.0,5.6999998093,333.0,-104.0,196.5,1977.5,-0.0304878056,0.0,0.0304878056
2023-11-21 20:59:08.240,3.0,5.6999998093,333.0,-104.0,196.0,1978.0,-0.0609756112,0.0,0.0
2023-11-21 20:59:08.250,3.0,5.6999998093,333.0,-103.0,197.0,1979.0,0.0,0.0,0.0
2023-11-21 20:59:08.260,3.0,5.6999998093,333.0,-103.0,197.0,1979.0,0.0,0.0,0.0
2023-11-21 20:59:08.270,3.0,5.6999998093,333.0,-104.0,197.0,1979.0,-0.0609756112,0.0,-0.0609756112
2023-11-21 20:59:08.280,3.0,5.6999998093,333.0,-104.0,196.0,1979.0,-0.0609756112,0.0,0.0609756112
2023-11-21 20:59:08.290,3.0,5.6999998093,333.0,-106.0,197.0,1978.0,0.0609756112,-0.0609756112,0.0609756112
2023-11-21 20:59:08.300,3.0,5.6999998093,333.0,-106.0,197.0,1978.0,0.0609756112,-0.0609756112,0.0609756112
2023-11-21 20:59:08.310,3.0,5.6999998093,333.0,-103.0,194.0,1980.0,-0.0609756112,0.0,0.0
2023-11-21 20:59:08.320,3.0,5.6999998093,333.0,-105.0,196.0,1979.0,0.0609756112,-0.0609756112,-0.0609756112
2023-11-21 20:59:08.330,3.0,5.6999998093,333.0,-105.0,197.0,1978.0,-0.0609756112,-0.0609756112,-0.0609756112
2023-11-21 20:59:08.340,3.0,5.6999998093,333.0,-105.0,196.5,1977.5,0.0,-0.0304878056,-0.0304878056
2023-11-21 20:59:08.350,3.0,5.6999998093,333.0,-105.0,196.0,1977.0,0.0609756112,0.0,0.0
2023-11-21 20:59:08.360,3.0,5.6999998093,333.0,-104.5,195.5,1977.5,0.0,0.0304878056,0.0304878056
2023-11-21 20:59:08.370,3.0,5.6999998093,333.0,-104.0,195.0,1978.0,-0.0609756112,0.0609756112,0.0609756112
2023-11-21 20:59:08.380,3.0,5.6999998093,333.0,-105.0,198.0,1980.0,-0.0609756112,-0.0609756112,0.0
2023-11-21 20:59:08.390,3.0,5.6999998093,333.0,-108.0,198.0,1980.0,0.0,0.0,0.0
2023-11-21 20:59:08.400,3.0,5.6999998093,333.0,-107.0,197.0,1979.5,0.0,0.0,0.0
2023-11-21 20:59:08.410,3.0,5.6999998093,333.0,-106.0,196.0,1979.0,0.0,0.0,0.0
2023-11-21 20:59:08.420,3.0,5.6999998093,333.0,-105.0,196.0,1978.0,0.0,0.0,0.0609756112
2023-11-21 20:59:08.430,3.0,5.6999998093,333.0,-103.0,195.0,1979.0,0.0609756112,0.0,-0.0609756112
2023-11-21 20:59:08.440,3.0,5.6999998093,333.0,-104.0,196.0,1978.0,0.0609756112,0.0609756112,0.0
2023-11-21 20:59:08.450,3.0,5.6999998093,333.0,-104.0,196.0,1978.0,0.0609756112,0.0609756112,0.0
2023-11-21 20:59:08.460,3.0,5.6999998093,333.0,-105.0,197.0,1978.0,0.0,-0.0609756112,0.0
2023-11-21 20:59:08.470,3.0,5.6999998093,333.0,-105.0,198.0,1978.0,0.0,0.0,0.0609756112
2023-11-21 20:59:08.480,3.0,5.6999998093,333.0,-105.0,198.0,1978.0,0.0,0.0,0.0609756112
2023-11-21 20:59:08.490,3.0,5.6999998093,333.0,-105.0,197.0,1978.0,-0.0304878056,0.0,0.0304878056
2023-11-21 20:59:08.500,3.0,5.6999998093,333.0,-105.0,196.0,1978.0,-0.0609756112,0.0,0.0
2023-11-21 20:59:08.510,3.0,5.6999998093,333.0,-104.0,196.0,1978.0,0.0609756112,0.0609756112,0.0
2023-11-21 20:59:08.520,3.0,5.6999998093,333.0,-104.0,196.0,1977.0,-0.0609756112,0.0609756112,0.0609756112
2023-11-21 20:59:08.530,3.0,5.6999998093,333.0,-104.0,197.0,1978.0,-0.0609756112,0.0609756112,0.0
2023-11-21 20:59:08.540,3.0,5.6999998093,333.0,-104.0,197.0,1978.0,-0.0609756112,0.0609756112,0.0
2023-11-21 20:59:08.550,3.0,5.6999998093,333.0,-103.0,195.0,1979.0,0.0609756112,0.0,0.0
2023-11-21 20:59:08.560,3.0,5.6999998093,333.0,-103.0,195.0,1979.0,0.0,-0.0609756112,0.0609756112
2023-11-21 20:59:08.570,3.0,5.6999998093,333.0,-103.5,194.5,1979.5,0.0,0.0,0.0304878056
2023-11-21 20:59:08.580,3.0,5.6999998093,333.0,-104.0,194.0,1980.0,0.0,0.0609756112,0.0
2023-11-21 20:59:08.590,3.0,5.6999998093,333.0,-105.0,196.0,1979.0,0.0,0.0609756112,0.1219512224
2023-11-21 20:59:08.600,3.0,5.6999998093,333.0,-105.0,198.0,1980.0,0.0,0.0,-0.0609756112
2023-11-21 20:59:08.610,3.0,5.6999998093,333.0,-104.0,194.0,1980.0,0.0,-0.0609756112,-0.0609756112
2023-11-21 20:59:08.620,3.0,5.6999998093,333.0,-103.0,192.0,1980.0,0.0,0.0,0.0609756112
2023-11-21 20:59:08.630,3.0,5.6999998093,333.0,-105.0,196.0,1980.0,0.0609756112,0.0,-0.0609756112
2023-11-21 20:59:08.640,3.0,5.6999998093,333.0,-105.0,196.0,1980.0,0.0609756112,0.0,-0.0609756112
2023-11-21 20:59:08.650,3.0,5.6999998093,333.0,-104.0,194.0,1980.0,0.0609756112,0.0,0.0609756112
2023-11-21 20:59:08.660,3.0,5.6999998093,333.0,-102.0,195.0,1979.0,-0.0609756112,-0.0609756112,0.0
2023-11-21 20:59:08.670,3.0,5.6999998093,333.0,-103.5,196.0,1979.0,-0.0609756112,-0.0304878056,-0.0304878056
2023-11-21 20:59:08.680,3.0,5.6999998093,333.0,-105.0,197.0,1979.0,-0.0609756112,0.0,-0.0609756112
2023-11-21 20:59:08.690,3.0,5.6999998093,333.0,-105.0,198.0,1979.0,0.0,0.1219512224,0.0
2023-11-21 20:59:08.700,3.0,5.6999998093,333.0,-104.0,196.0,1979.0,0.0,-0.0609756112,-0.0609756112
2023-11-21 20:59:08.710,3.0,5.6999998093,333.0,-104.0,195.0,1980.0,0.0,0.0,0.0
2023-11-21 20:59:08.720,3.0,5.6999998093,333.0,-104.0,195.0,1980.0,0.0,0.0,0.0
2023-11-21 20:59:08.730,3.0,5.6999998093,333.0,-105.0,196.0,1980.0,0.0609756112,0.0,0.0
2023-11-21 20:59:08.740,3.0,5.6999998093,333.0,-104.5,196.5,1980.0,0.0304878056,0.0304878056,0.0
2023-11-21 20:59:08.750,3.0,5.6999998093,333.0,-104.0,197.0,1980.0,0.0,0.0609756112,0.0
2023-11-21 20:59:08.760,3.0,5.6999998093,333.0,-105.0,196.0,1978.0,-0.0609756112,0.0,0.0
2023-11-21 20:59:08.770,3.0,5.6999998093,333.0,-104.33333333333334,196.66666666666669,1978.8333333333335,-0.04065040746666667,0.0,-0.0304878056
2023-11-21 20:59:08.780,3.0,5.6999998093,333.0,-103.66666666666667,197.33333333333334,1979.6666666666667,-0.020325203733333335,0.0,-0.0609756112
2023-11-21 20:59:08.790,3.0,5.6999998093,333.0,-103.0,196.0,1979.0,-0.0609756112,0.0,-0.0609756112
2023-11-21 20:59:08.800,3.0,5.6999998093,333.0,-104.0,196.0,1980.0,-0.0609756112,0.0,0.0
2023-11-21 20:59:08.810,3.0,5.6999998093,333.0,-104.0,194.0,1981.0,0.0,-0.0609756112,0.0
2023-11-21 20:59:08.820,3.0,5.6999998093,333.0,-105.0,196.0,1980.0,0.0,0.0,0.0
2023-11-21 20:59:08.830,3.0,5.6999998093,333.0,-105.0,196.0,1980.0,0.0,0.0,0.0
2023-11-21 20:59:08.840,3.0,5.6999998093,333.0,-105.0,196.0,1981.0,0.0,-0.0609756112,0.0
2023-11-21 20:59:08.850,3.0,5.6999998093,333.0,-104.0,197.0,1979.0,0.0,-0.0609756112,0.0
2023-11-21 20:59:08.860,3.0,5.6999998093,333.0,-104.0,197.0,1979.0,0.0,-0.0609756112,0.0
2023-11-21 20:59:08.870,3.0,5.6999998093,333.0,-104.0,195.0,1981.0,-0.0609756112,0.0,-0.0609756112
2023-11-21 20:59:08.880,3.0,5.6999998093,333.0,-103.5,194.5,1980.5,-0.0609756112,0.0304878056,-0.0609756112
2023-11-21 20:59:08.890,3.0,5.6999998093,333.0,-103.0,194.0,1980.0,-0.0609756112,0.0609756112,-0.0609756112
2023-11-21 20:59:08.900,3.0,5.6999998093,333.0,-104.0,196.0,1981.0,0.0609756112,-0.0609756112,0.0
2023-11-21 20:59:08.910,3.0,5.6999998093,333.0,-104.0,196.0,1980.0,0.0,0.0609756112,0.0
2023-11-21 20:59:08.920,3.0,5.6999998093,333.0,-104.5,195.5,1980.0,0.0,0.0304878056,0.0
2023-11-21 20:59:08.930,3.0,5.6999998093,333.0,-105.0,195.0,1980.0,0.0,0.0,0.0
2023-11-21 20:59:08.940,3.0,5.6999998093,333.0,-104.0,197.0,1981.0,0.0,0.0,-0.1219512224
2023-11-21 20:59:08.950,3.0,5.6999998093,333.0,-104.0,197.0,1981.0,0.0,0.0,0.0
2023-11-21 20:59:08.960,3.0,5.6999998093,333.0,-105.0,197.0,1981.0,0.0,-0.0609756112,0.0
2023-11-21 20:59:08.970,3.0,5.6999998093,333.0,-105.0,197.0,1981.0,0.0,-0.0609756112,0.0
2023-11-21 20:59:08.980,3.0,5.6999998093,333.0,-105.0,195.0,1982.0,0.0609756112,-0.0609756112,0.0
2023-11-21 20:59:08.990,3.0,5.6999998093,333.0,-104.0,195.5,1981.5,0.0609756112,-0.0304878056,0.0
2023-11-21 20:59:09.000,3.0,5.6999998093,333.0,-103.0,196.0,1981.0,0.0609756112,0.0,0.0
2023-11-21 20:59:09.010,3.0,5.6999998093,333.0,-105.0,196.0,1981.0,0.0609756112,-0.0609756112,-0.0609756112
2023-11-21 20:59:09.020,3.0,5.6999998093,333.0,-104.0,197.0,1981.0,-0.0609756112,-0.0609756112,0.0
2023-11-21 20:59:09.030,3.0,5.6999998093,333.0,-104.0,197.0,1981.0,-0.0609756112,-0.0609756112,0.0
2023-11-21 20:59:09.040,3.0,5.6999998093,333.0,-106.0,197.0,1981.0,-0.0609756112,0.0,0.0609756112
2023-11-21 20:59:09.050,3.0,5.6999998093,333.0,-105.0,195.0,1981.0,-0.0609756112,0.0,0.0609756112
2023-11-21 20:59:09.060,3.0,5.6999998093,333.0,-103.0,195.0,1980.0,-0.0609756112,0.0,0.0
2023-11-21 20:59:09.070,3.0,5.6999998093,333.0,-103.0,194.5,1980.5,-0.0304878056,-0.0304878056,0.0
2023-11-21 20:59:09.080,3.0,5.6999998093,333.0,-103.0,194.0,1981.0,0.0,-0.0609756112,0.0
2023-11-21 20:59:09.090,3.0,5.6999998093,333.0,-103.0,197.0,1981.0,0.0,0.0,0.0
2023-11-21 20:59:09.100,3.0,5.6999998093,333.0,-103.0,196.0,1981.0,0.0609756112,0.0,0.0
2023-11-21 20:59:09.110,3.0,5.6999998093,333.0,-105.0,198.0,1981.0,-0.0609756112,0.0,0.0609756112
2023-11-21 20:59:09.120,3.0,5.6999998093,333.0,-105.0,198.0,1981.0,-0.0609756112,0.0,0.0609756112
2023-11-21 20:59:09.130,3.0,5.6999998093,333.0,-106.0,198.0,1981.0,0.0,0.0,0.1219512224
2023-11-21 20:59:09.140,3.0,5.6999998093,333.0,-106.0,197.0,1981.0,-0.0609756112,0.0,0.0
2023-11-21 20:59:09.150,3.0,5.6999998093,333.0,-106.0,197.0,1981.0,-0.0609756112,0.0,0.0
2023-11-21 20:59:09.160,3.0,5.6999998093,333.0,-104.0,197.0,1982.0,0.0,0.0609756112,0.0
2023-11-21 20:59:09.170,3.0,5.6999998093,333.0,-103.0,197.0,1981.0,0.0,0.0,0.0609756112
2023-11-21 20:59:09.180,3.0,5.6999998093,333.0,-105.0,196.0,1981.0,0.0,0.0,0.0609756112
2023-11-21 20:59:09.190,3.0,5.6999998093,333.0,-105.0,196.0,1981.0,0.0,0.0,0.0609756112
2023-11-21 20:59:09.200,3.0,5.6999998093,333.0,-103.0,196.0,1980.0,0.0609756112,0.1219512224,0.0
2023-11-21 20:59:09.210,3.0,5.6999998093,333.0,-105.0,195.0,1982.0,0.0,-0.0609756112,-0.0609756112
2023-11-21 20:59:09.220,3.0,5.6999998093,333.0,-106.0,196.0,1981.0,0.0609756112,0.0,0.0
2023-11-21 20:59:09.230,3.0,5.6999998093,333.0,-106.0,196.0,1981.0,0.0609756112,0.0,0.0
2023-11-21 20:59:09.240,3.0,5.6999998093,333.0,-103.0,194.0,1981.0,0.0609756112,0.0,0.0609756112
2023-11-21 20:59:09.250,3.0,5.6999998093,333.0,-102.0,194.0,1982.0,0.0609756112,0.0,-0.0609756112
2023-11-21 20:59:09.260,3.0,5.6999998093,333.0,-102.0,194.0,1982.0,0.0609756112,0.0,-0.0609756112
2023-11-21 20:59:09.270,3.0,5.6999998093,333.0,-106.0,197.0,1981.0,-0.0609756112,-0.0609756112,0.0
2023-11-21 20:59:09.280,3.0,5.6999998093,333.0,-106.0,197.0,1981.0,0.0,-0.0609756112,0.0609756112
2023-11-21 20:59:09.290,3.0,5.6999998093,333.0,-105.0,195.0,1981.0,0.0,0.0,0.0
2023-11-21 20:59:09.300,3.0,5.6999998093,333.0,-104.5,195.5,1981.0,-0.0304878056,0.0304878056,0.0
2023-11-21 20:59:09.310,3.0,5.6999998093,333.0,-104.0,196.0,1981.0,-0.0609756112,0.0609756112,0.0
2023-11-21 20:59:09.320,3.0,5.6999998093,333.0,-104.0,194.0,1982.0,0.0,0.0,0.0
2023-11-21 20:59:09.330,3.0,5.6999998093,333.0,-104.0,196.0,1982.0,-0.0609756112,0.0,0.0
2023-11-21 20:59:09.340,3.0,5.6999998093,333.0,-104.0,194.0,1981.0,0.0,0.0,0.0609756112
2023-11-21 20:59:09.350,3.0,5.6999998093,333.0,-104.0,194.0,1981.0,0.0,0.0,0.0609756112
2023-11-21 20:59:09.360,3.0,5.6999998093,333.0,-105.0,199.0,1981.0,0.0,0.0,0.0609756112
2023-11-21 20:59:09.370,3.0,5.6999998093,333.0,-104.0,197.0,1981.0,0.0609756112,0.0609756112,0.0609756112
2023-11-21 20:59:09.380,3.0,5.6999998093,333.0,-104.0,195.0,1981.0,0.0609756112,0.0609756112,0.0
2023-11-21 20:59:09.390,3.0,5.6999998093,333.0,-104.0,195.0,1981.0,0.0609756112,0.0609756112,0.0
2023-11-21 20:59:09.400,3.0,5.6999998093,333.0,-104.66666666666667,195.66666666666666,1982.0,-0.0609756112,0.0,0.0
2023-11-21 20:59:09.410,3.0,5.6999998093,333.0,-105.0,196.0,1981.0,0.0609756112,0.0,0.0
2023-11-21 20:59:09.420,3.0,5.6999998093,333.0,-104.5,195.5,1981.0,0.0304878056,0.0304878056,0.0
2023-11-21 20:59:09.430,3.0,5.6999998093,333.0,-104.0,195.0,1981.0,0.0,0.0609756112,0.0
2023-11-21 20:59:09.440,3.0,5.6999998093,333.0,-103.0,196.0,1981.0,-0.0609756112,0.0,0.0
2023-11-21 20:59:09.450,3.0,5.6999998093,333.0,-103.0,196.0,1982.0,-0.0609756112,0.0,0.0
2023-11-21 20:59:09.460,3.0,5.6999998093,333.0,-103.0,196.0,1982.0,-0.0609756112,0.0,0.0
2023-11-21 20:59:09.470,3.0,5.6999998093,333.0,-105.0,195.0,1982.0,0.0,0.0,0.0609756112
2023-11-21 20:59:09.480,3.0,5.6999998093,333.0,-103.0,196.0,1981.0,-0.0609756112,0.0,0.0
2023-11-21 20:59:09.490,3.0,5.6999998093,333.0,-103.0,196.0,1981.0,0.0609756112,-0.0609756112,0.0609756112
2023-11-21 20:59:09.500,3.0,5.6999998093,333.0,-103.5,196.0,1981.5,0.0609756112,-0.0304878056,0.0609756112
2023-11-21 20:59:09.510,3.0,5.6999998093,333.0,-104.0,196.0,1982.0,0.0609756112,0.0,0.0609756112
2023-11-21 20:59:09.520,3.0,5.6999998093,333.0,-103.5,196.0,1981.5,0.0304878056,0.0,-0.0304878056
2023-11-21 20:59:09.530,3.0,5.6999998093,333.0,-103.0,196.0,1981.0,0.0,0.0,-0.1219512224
2023-11-21 20:59:09.540,3.0,5.6999998093,333.0,-105.0,197.0,1980.0,0.0,0.0609756112,0.1219512224
2023-11-21 20:59:09.550,3.0,5.6999998093,333.0,-105.0,198.0,1982.0,0.0,-0.0609756112,0.0
2023-11-21 20:59:09.560,3.0,5.6999998093,333.0,-104.5,196.0,1982.0,0.0,-0.0304878056,0.0
2023-11-21 20:59:09.570,3.0,5.6999998093,333.0,-104.0,194.0,1982.0,0.0,0.0,0.0
2023-11-21 20:59:09.580,3.0,5.6999998093,333.0,-105.0,197.0,1982.0,0.0,0.0,0.0609756112
2023-11-21 20:59:09.590,3.0,5.6999998093,333.0,-103.0,196.0,1981.0,0.0,0.0609756112,0.0
2023-11-21 20:59:09.600,3.0,5.6999998093,333.0,-105.0,195.0,1982.0,-0.0609756112,0.0,0.0
2023-11-21 20:59:09.610,3.0,5.6999998093,333.0,-105.0,195.0,1982.0,-0.0609756112,0.0,0.0
2023-11-21 20:59:09.620,3.0,5.6999998093,333.0,-107.0,196.0,1981.0,0.0609756112,0.0,0.1219512224
2023-11-21 20:59:09.630,3.0,5.6999998093,333.0,-106.0,197.0,1982.0,0.0,0.0,-0.0609756112
2023-11-21 20:59:09.640,3.0,5.6999998093,333.0,-104.0,196.0,1982.0,0.0,0.0,0.0
2023-11-21 20:59:09.650,3.0,5.674999833125,333.0,-104.5,196.0,1982.0,0.0,0.0,0.0
2023-11-21 20:59:09.660,3.0,5.64999985695,333.0,-105.0,196.0,1982.0,0.0,0.0,0.0
2023-11-21 20:59:09.670,3.0,5.5999999046,333.0,-104.0,194.0,1981.0,0.0,-0.0609756112,-0.0609756112
2023-11-21 20:59:09.680,3.0,5.5999999046,333.0,-104.0,194.0,1981.0,0.0,-0.0609756112,-0.0609756112
2023-11-21 20:59:09.690,3.0,5.5999999046,333.0,-105.0,196.0,1982.0,0.0609756112,-0.0609756112,0.0
2023-11-21 20:59:09.700,3.0,5.5999999046,333.0,-103.0,195.0,1981.0,0.0609756112,-0.0609756112,0.0
2023-11-21 20:59:09.710,3.0,5.5999999046,333.0,-104.0,197.0,1982.0,0.0609756112,0.0,0.0
2023-11-21 20:59:09.720,3.0,5.5999999046,333.0,-104.0,197.0,1982.0,0.0609756112,0.0,0.0
2023-11-21 20:59:09.730,3.0,5.64999985695,333.0,-107.0,197.0,1982.0,0.0,0.0,0.0
2023-11-21 20:59:09.740,3.0,5.6999998093,333.0,-103.0,196.0,1981.0,-0.0609756112,0.0,0.0609756112
2023-11-21 20:59:09.750,3.0,5.6999998093,333.0,-103.0,195.0,1981.0,0.0,0.0,0.0
2023-11-21 20:59:09.760,3.0,5.6999998093,333.0,-103.5,196.0,1981.5,0.0,-0.0304878056,0.0
2023-11-21 20:59:09.770,3.0,5.5999999046,333.0,-104.0,197.0,1982.0,0.0,-0.0609756112,0.0
2023-11-21 20:59:09.780,3.0,5.64999985695,333.0,-104.0,194.0,1982.0,0.0609756112,-0.0609756112,0.0
2023-11-21 20:59:09.790,3.0,5.6999998093,333.0,-104.0,194.0,1982.0,0.0609756112,-0.0609756112,0.0
2023-11-21 20:59:09.800,3.0,5.6999998093,333.0,-104.0,194.0,1981.0,0.0,-0.0609756112,0.0
2023-11-21 20:59:09.810,3.0,5.5999999046,333.0,-104.0,194.0,1981.0,0.0,-0.0609756112,0.0
2023-11-21 20:59:09.820,3.0,5.5999999046,333.0,-106.0,198.0,1982.0,0.0,0.0,-0.0609756112
2023-11-21 20:59:09.830,3.0,5.64999985695,333.0,-105.0,198.0,1983.0,0.0,0.0609756112,-0.0609756112
2023-11-21 20:59:09.840,3.0,5.6999998093,333.0,-105.0,199.0,1981.0,0.0,-0.0609756112,-0.0609756112
2023-11-21 20:59:09.850,3.0,5.6999998093,333.0,-106.0,199.0,1982.0,0.0609756112,-0.0609756112,-0.0609756112
2023-11-21 20:59:09.860,3.0,5.6999998093,333.0,-106.0,199.0,1982.0,0.0609756112,-0.0609756112,-0.0609756112
2023-11-21 20:59:09.870,3.0,5.6999998093,333.0,-104.0,196.0,1980.0,0.0609756112,-0.0609756112,0.0
2023-11-21 20:59:09.880,3.0,5.6999998093,333.0,-104.0,198.0,1981.0,0.0,0.0,0.0
2023-11-21 20:59:09.890,3.0,5.6999998093,333.0,-106.0,197.0,1982.0,0.0,0.0609756112,0.0
2023-11-21 20:59:09.900,3.0,5.6999998093,333.0,-106.0,197.0,1982.0,0.0,0.0609756112,0.0
2023-11-21 20:59:09.910,3.0,5.6999998093,333.0,-106.0,197.0,1983.0,0.0,0.0,0.0
2023-11-21 20:59:09.920,3.0,5.6999998093,333.0,-106.0,197.0,1983.0,0.0,0.0,0.0
2023-11-21 20:59:09.930,3.0,5.6999998093,333.0,-103.0,197.0,1981.0,0.0,0.0,0.0
2023-11-21 20:59:09.940,3.0,5.6999998093,333.0,-104.0,195.0,1981.0,0.0,0.0,0.0
2023-11-21 20:59:09.950,3.0,5.6999998093,333.0,-105.0,197.0,1982.0,0.0,0.0,0.0
2023-11-21 20:59:09.960,3.0,5.6999998093,333.0,-105.0,197.0,1982.0,0.0,0.0,0.0
2023-11-21 20:59:09.970,3.0,5.6999998093,333.0,-102.0,195.0,1981.0,0.0609756112,-0.1219512224,-0.0609756112
2023-11-21 20:59:09.980,3.0,5.6999998093,333.0,-103.0,195.0,1981.0,0.0,0.0,-0.1219512224
2023-11-21 20:59:09.990,3.0,5.6999998093,333.0,-103.0,194.0,1982.0,0.0,0.0,0.0609756112
2023-11-21 20:59:10.000,3.0,5.6999998093,333.0,-103.0,194.0,1982.0,0.0,0.0,0.0609756112
2023-11-21 20:59:10.010,3.0,5.6999998093,333.0,-106.0,197.0,1983.0,0.0,0.0,0.0
2023-11-21 20:59:10.020,3.0,5.6999998093,333.0,-108.0,197.0,1980.0,0.0,0.0609756112,0.0
2023-11-21 20:59:10.030,3.0,5.6999998093,333.0,-105.0,197.0,1981.0,0.0609756112,0.0609756112,0.0
2023-11-21 20:59:10.040,3.0,5.6999998093,333.0,-105.0,197.0,1981.0,0.0609756112,0.0609756112,0.0
2023-11-21 20:59:10.050,3.0,5.6999998093,333.0,-106.0,198.0,1981.0,-0.0609756112,-0.0609756112,0.0
2023-11-21 20:59:10.060,3.0,5.6999998093,333.0,-105.0,196.0,1981.0,0.0,0.0,0.0
2023-11-21 20:59:10.070,3.0,5.6999998093,333.0,-104.0,197.0,1981.0,0.0609756112,0.0,0.0609756112
2023-11-21 20:59:10.080,3.0,5.6999998093,333.0,-104.0,197.0,1981.0,0.0609756112,0.0,0.0609756112
2023-11-21 20:59:10.090,3.0,5.6999998093,333.0,-103.0,196.0,1980.0,-0.0609756112,0.0,0.0609756112
2023-11-21 20:59:10.100,3.0,5.6999998093,333.0,-104.0,195.0,1981.0,0.0,0.0,0.0
2023-11-21 20:59:10.110,3.0,5.6999998093,333.0,-106.0,197.0,1981.0,0.0,0.0,0.0
2023-11-21 20:59:10.120,3.0,5.6999998093,333.0,-105.5,196.5,1981.0,0.0,0.0304878056,0.0
2023-11-21 20:59:10.130,3.0,5.6999998093,333.0,-104.5,195.0,1981.0,0.0304878056,0.0,0.0
2023-11-21 20:59:10.140,3.0,5.6999998093,333.0,-104.0,194.0,1981.0,0.0609756112,-0.0609756112,0.0
2023-11-21 20:59:10.150,3.0,5.6999998093,333.0,-105.0,195.0,1981.0,0.0,0.0,0.0609756112
